pics,type,trials.thisRepN,trials.thisTrialN,trials.thisN,trials.thisIndex,trials_2.thisRepN,trials_2.thisTrialN,trials_2.thisN,trials_2.thisIndex,trials_3.thisRepN,trials_3.thisTrialN,trials_3.thisN,trials_3.thisIndex,thisRow.t,notes,welcome.started,text.started,key_resp.started,welcome.stopped,key_resp.keys,key_resp.rt,key_resp.duration,questions.started,question1.started,slideranswer.started,question1.stopped,slideranswer.stopped,question2.started,textbox.started,questions.stopped,slideranswer.response,slideranswer.rt,textbox.text,instruction1.started,text_2.started,key_resp_2.started,instruction1.stopped,key_resp_2.keys,key_resp_2.rt,key_resp_2.duration,experiment1.started,fixation1.started,image.started,buttontomorrow_1.started,buttoninayear_1.started,fixation1.stopped,experiment1.stopped,buttontomorrow_1.numClicks,buttontomorrow_1.timesOn,buttontomorrow_1.timesOff,buttoninayear_1.numClicks,buttoninayear_1.timesOn,buttoninayear_1.timesOff,instruction2.started,instruction.started,instruction.stopped,instruction2.stopped,experiment2.started,fixation_1.started,image_2.started,slider.started,fixation_1.stopped,experiment2.stopped,slider.response,slider.rt,instructions3.started,instruction_2.started,instructions3.stopped,experiment3.started,fixation_3.started,image_3.started,slider_2.started,fixation_3.stopped,experiment3.stopped,slider_2.response,slider_2.rt,thankyou.started,ThankYou.started,thankyou.stopped,participant,session,date,expName,psychopyVersion,frameRate,expStart,
,,,,,,,,,,,,,,,,0.00433070000144653,0.015237399988109246,0.015237399988109246,5.725310100009665,space,5.694023899995955,None,,,,,,,,,,,,,,,,,,,,,,,,,,,,,,,,,,,,,,,,,,,,,,,,,,,,,,,,,,1ri,001,2023-11-26_18h49.16.449,CLT,2023.2.3,59.88694542806558,2023-11-26 18h49.50.971704 +0530,
,,,,,,,,,,,,,,,,,,,,,,,5.725402499985648,5.898117600008845,5.898117600008845,20.900899300002493,20.900899300002493,21.741488800005754,21.741488800005754,31.7478654999868,None,None,"1
",31.747949100012193,31.75751249998575,31.75751249998575,44.81008080000174,space,13.003673300001537,None,,,,,,,,,,,,,,,,,,,,,,,,,,,,,,,,,,,,,,,,1ri,001,2023-11-26_18h49.16.449,CLT,2023.2.3,59.88694542806558,2023-11-26 18h49.50.971704 +0530,
C:\Users\Vinisha\Desktop\Lab in psychology\final assigment\Set11(Mich)\mich-i.jpg,i,0,0,0,27,,,,,,,,,45.0704623000056,,,,,,,,,,,,,,,,,,,,,,,,,,,44.85019029999967,45.0704623000056,45.88621309999144,45.88621309999144,45.88621309999144,46.07950439999695,50.05367079999996,1,[4.24226619998808],[4.242294099996798],0,,,,,,,,,,,,,,,,,,,,,,,,,,,,,1ri,001,2023-11-26_18h49.16.449,CLT,2023.2.3,59.88694542806558,2023-11-26 18h49.50.971704 +0530,
C:\Users\Vinisha\Desktop\Lab in psychology\final assigment\Set12(salvador)\salvador-i.jpg,i,0,1,1,30,,,,,,,,,50.440915299986955,,,,,,,,,,,,,,,,,,,,,,,,,,,50.05976110001211,50.440915299986955,51.086583500000415,51.086583500000415,51.086583500000415,51.47184630000265,54.64502399999765,1,[3.5848254000011366],[3.584857000008924],0,,,,,,,,,,,,,,,,,,,,,,,,,,,,,1ri,001,2023-11-26_18h49.16.449,CLT,2023.2.3,59.88694542806558,2023-11-26 18h49.50.971704 +0530,
C:\Users\Vinisha\Desktop\Lab in psychology\final assigment\Set 1 (Mark)\Mark-N.jpg,n,0,2,2,1,,,,,,,,,54.79480329999933,,,,,,,,,,,,,,,,,,,,,,,,,,,54.64828399999533,54.79480329999933,55.669722199992975,55.669722199992975,55.669722199992975,55.80790750001324,63.19683490000898,0,,,1,[7.556391399994027],[7.556412600009935],,,,,,,,,,,,,,,,,,,,,,,,,,,1ri,001,2023-11-26_18h49.16.449,CLT,2023.2.3,59.88694542806558,2023-11-26 18h49.50.971704 +0530,
C:\Users\Vinisha\Desktop\Lab in psychology\final assigment\Set10(picasso)\picasso-n.jpg,n,0,3,3,25,,,,,,,,,63.238077199988766,,,,,,,,,,,,,,,,,,,,,,,,,,,63.198896899994,63.238077199988766,64.2119912999915,64.2119912999915,64.2119912999915,64.26361349999206,66.67397400000482,1,[2.485985700011952],[2.486004900012631],0,,,,,,,,,,,,,,,,,,,,,,,,,,,,,1ri,001,2023-11-26_18h49.16.449,CLT,2023.2.3,59.88694542806558,2023-11-26 18h49.50.971704 +0530,
C:\Users\Vinisha\Desktop\Lab in psychology\final assigment\Set10(picasso)\picasso-r.jpg,r,0,4,4,26,,,,,,,,,66.7401508000039,,,,,,,,,,,,,,,,,,,,,,,,,,,66.67591689998517,66.7401508000039,67.69452759998967,67.69452759998967,67.69452759998967,67.76302230000147,69.04029189998982,1,[1.3692441000021063],[1.3692662000248674],0,,,,,,,,,,,,,,,,,,,,,,,,,,,,,1ri,001,2023-11-26_18h49.16.449,CLT,2023.2.3,59.88694542806558,2023-11-26 18h49.50.971704 +0530,
C:\Users\Vinisha\Desktop\Lab in psychology\final assigment\Set 6 (Clifford)\Clifford-N1.jpg,n,0,5,5,16,,,,,,,,,69.1280415999936,,,,,,,,,,,,,,,,,,,,,,,,,,,69.04273580000154,69.1280415999936,70.05591009999625,70.05591009999625,70.05591009999625,70.13744910000241,72.2058754999889,0,,,1,[2.17011310000089],[2.1701350000221282],,,,,,,,,,,,,,,,,,,,,,,,,,,1ri,001,2023-11-26_18h49.16.449,CLT,2023.2.3,59.88694542806558,2023-11-26 18h49.50.971704 +0530,
C:\Users\Vinisha\Desktop\Lab in psychology\final assigment\Set 2 (Mark)\Mark-I.jpg,i,0,6,6,4,,,,,,,,,72.23824410000816,,,,,,,,,,,,,,,,,,,,,,,,,,,72.20776960000512,72.23824410000816,73.22435850001057,73.22435850001057,73.22435850001057,73.2465755000012,76.4438933999918,1,[3.242057700001169],[3.242074899986619],0,,,,,,,,,,,,,,,,,,,,,,,,,,,,,1ri,001,2023-11-26_18h49.16.449,CLT,2023.2.3,59.88694542806558,2023-11-26 18h49.50.971704 +0530,
C:\Users\Vinisha\Desktop\Lab in psychology\final assigment\Set 1 (Mark)\Mark-I.jpg,i,0,7,7,0,,,,,,,,,76.48279790001106,,,,,,,,,,,,,,,,,,,,,,,,,,,76.4459130000032,76.48279790001106,77.45639050001046,77.45639050001046,77.45639050001046,77.49980930000311,84.40669999999227,0,,,1,[6.973455800005468],[6.973468100011814],,,,,,,,,,,,,,,,,,,,,,,,,,,1ri,001,2023-11-26_18h49.16.449,CLT,2023.2.3,59.88694542806558,2023-11-26 18h49.50.971704 +0530,
C:\Users\Vinisha\Desktop\Lab in psychology\final assigment\Set11(Mich)\mich-r.jpg,r,0,8,8,29,,,,,,,,,84.4551296000136,,,,,,,,,,,,,,,,,,,,,,,,,,,84.40797949998523,84.4551296000136,85.41297939998913,85.41297939998913,85.41297939998913,85.48081330000423,87.80798809998669,1,[2.4107389000128023],[2.410759699996561],0,,,,,,,,,,,,,,,,,,,,,,,,,,,,,1ri,001,2023-11-26_18h49.16.449,CLT,2023.2.3,59.88694542806558,2023-11-26 18h49.50.971704 +0530,
C:\Users\Vinisha\Desktop\Lab in psychology\final assigment\Set 2 (Mark)\Mark-N.jpg,n,0,9,9,3,,,,,,,,,87.8450945999939,,,,,,,,,,,,,,,,,,,,,,,,,,,87.80996720000985,87.8450945999939,88.81285039999057,88.81285039999057,88.81285039999057,88.84645169999567,91.34400829998776,1,[2.5472427000058815],[2.5472670000162907],0,,,,,,,,,,,,,,,,,,,,,,,,,,,,,1ri,001,2023-11-26_18h49.16.449,CLT,2023.2.3,59.88694542806558,2023-11-26 18h49.50.971704 +0530,
C:\Users\Vinisha\Desktop\Lab in psychology\final assigment\Set 5 (Clifford)\Clifford-R.jpg,r,0,10,10,12,,,,,,,,,91.49671020000824,,,,,,,,,,,,,,,,,,,,,,,,,,,91.34614949999377,91.49671020000824,92.37027210000088,92.37027210000088,92.37027210000088,92.50549310000497,94.17112189999898,1,[1.8249563999997918],[1.8249715999991167],0,,,,,,,,,,,,,,,,,,,,,,,,,,,,,1ri,001,2023-11-26_18h49.16.449,CLT,2023.2.3,59.88694542806558,2023-11-26 18h49.50.971704 +0530,
C:\Users\Vinisha\Desktop\Lab in psychology\final assigment\Set8(Gosh)\gosh-n.jpg,n,0,11,11,18,,,,,,,,,94.372108999989,,,,,,,,,,,,,,,,,,,,,,,,,,,94.17280500000925,94.372108999989,95.18750060000457,95.18750060000457,95.18750060000457,95.3798633000115,96.38658829999622,1,[1.2243285999866202],[1.224349700001767],0,,,,,,,,,,,,,,,,,,,,,,,,,,,,,1ri,001,2023-11-26_18h49.16.449,CLT,2023.2.3,59.88694542806558,2023-11-26 18h49.50.971704 +0530,
C:\Users\Vinisha\Desktop\Lab in psychology\final assigment\Set 3 (Piet)\Piet-I.jpg,i,0,12,12,7,,,,,,,,,96.42357670000638,,,,,,,,,,,,,,,,,,,,,,,,,,,96.38905379999778,96.42357670000638,97.40210720000323,97.40210720000323,97.40210720000323,97.44766569999047,99.75317839998752,1,[2.374394000013126],[2.3744177000189666],0,,,,,,,,,,,,,,,,,,,,,,,,,,,,,1ri,001,2023-11-26_18h49.16.449,CLT,2023.2.3,59.88694542806558,2023-11-26 18h49.50.971704 +0530,
C:\Users\Vinisha\Desktop\Lab in psychology\final assigment\Set9(Gosh)\gosh-n.jpg,n,0,13,13,22,,,,,,,,,99.81213639999623,,,,,,,,,,,,,,,,,,,,,,,,,,,99.75571110000601,99.81213639999623,100.7691141999967,100.7691141999967,100.7691141999967,100.83705870000995,102.19402080000145,1,[1.4506228999816813],[1.4506424999854062],0,,,,,,,,,,,,,,,,,,,,,,,,,,,,,1ri,001,2023-11-26_18h49.16.449,CLT,2023.2.3,59.88694542806558,2023-11-26 18h49.50.971704 +0530,
C:\Users\Vinisha\Desktop\Lab in psychology\final assigment\Set12(salvador)\salvador-n.jpg,n,0,14,14,31,,,,,,,,,102.2203395999968,,,,,,,,,,,,,,,,,,,,,,,,,,,102.19605180001236,102.2203395999968,103.21704339998541,103.21704339998541,103.21704339998541,103.23795400001109,107.14983430001303,1,[3.9567312999861315],[3.956752999976743],0,,,,,,,,,,,,,,,,,,,,,,,,,,,,,1ri,001,2023-11-26_18h49.16.449,CLT,2023.2.3,59.88694542806558,2023-11-26 18h49.50.971704 +0530,
C:\Users\Vinisha\Desktop\Lab in psychology\final assigment\Set 5 (Clifford)\Clifford-I.jpg,i,0,15,15,14,,,,,,,,,107.33226090000244,,,,,,,,,,,,,,,,,,,,,,,,,,,107.15215909999097,107.33226090000244,108.1634950999869,108.1634950999869,108.1634950999869,108.35146820000955,111.09588249999797,1,[2.955001700000139],[2.9550178999779746],0,,,,,,,,,,,,,,,,,,,,,,,,,,,,,1ri,001,2023-11-26_18h49.16.449,CLT,2023.2.3,59.88694542806558,2023-11-26 18h49.50.971704 +0530,
C:\Users\Vinisha\Desktop\Lab in psychology\final assigment\Set 2 (Mark)\Mark-R.jpg,r,0,16,16,5,,,,,,,,,111.14764040001319,,,,,,,,,,,,,,,,,,,,,,,,,,,111.09766619998845,111.14764040001319,112.11531749999267,112.11531749999267,112.11531749999267,112.15831309999339,113.37306049998733,1,[1.2828431999951135],[1.2828654000186361],0,,,,,,,,,,,,,,,,,,,,,,,,,,,,,1ri,001,2023-11-26_18h49.16.449,CLT,2023.2.3,59.88694542806558,2023-11-26 18h49.50.971704 +0530,
C:\Users\Vinisha\Desktop\Lab in psychology\final assigment\Set10(picasso)\picasso-i.jpg,i,0,17,17,24,,,,,,,,,113.45780929998728,,,,,,,,,,,,,,,,,,,,,,,,,,,113.37572139999247,113.45780929998728,114.39410239999415,114.39410239999415,114.39410239999415,114.45992409999599,117.91184720001183,1,[3.5396465999947395],[3.539668099983828],0,,,,,,,,,,,,,,,,,,,,,,,,,,,,,1ri,001,2023-11-26_18h49.16.449,CLT,2023.2.3,59.88694542806558,2023-11-26 18h49.50.971704 +0530,
C:\Users\Vinisha\Desktop\Lab in psychology\final assigment\Set 6 (Clifford)\Clifford-R.jpg,r,0,18,18,17,,,,,,,,,117.94034179998562,,,,,,,,,,,,,,,,,,,,,,,,,,,117.91367239999818,117.94034179998562,118.93006670000614,118.93006670000614,118.93006670000614,118.95729240000946,120.4220362000051,1,[1.516857999988133],[1.5168845999869518],0,,,,,,,,,,,,,,,,,,,,,,,,,,,,,1ri,001,2023-11-26_18h49.16.449,CLT,2023.2.3,59.88694542806558,2023-11-26 18h49.50.971704 +0530,
C:\Users\Vinisha\Desktop\Lab in psychology\final assigment\Set8(Gosh)\gosh-r.jpg,r,0,19,19,19,,,,,,,,,121.36517249999451,,,,,,,,,,,,,,,,,,,,,,,,,,,120.42517070000758,121.36517249999451,121.48860790001345,121.48860790001345,121.48860790001345,122.37172289998853,122.78459440000006,1,[1.364412099996116],[1.3644362000050023],0,,,,,,,,,,,,,,,,,,,,,,,,,,,,,1ri,001,2023-11-26_18h49.16.449,CLT,2023.2.3,59.88694542806558,2023-11-26 18h49.50.971704 +0530,
C:\Users\Vinisha\Desktop\Lab in psychology\final assigment\Set 5 (Clifford)\Clifford-N.jpg,n,0,20,20,13,,,,,,,,,122.89137950001168,,,,,,,,,,,,,,,,,,,,,,,,,,,122.78683520000777,122.89137950001168,123.80898729999899,123.80898729999899,123.80898729999899,123.9037665000069,128.42218369999318,0,,,1,[4.636001600010786],[4.636023800005205],,,,,,,,,,,,,,,,,,,,,,,,,,,1ri,001,2023-11-26_18h49.16.449,CLT,2023.2.3,59.88694542806558,2023-11-26 18h49.50.971704 +0530,
C:\Users\Vinisha\Desktop\Lab in psychology\final assigment\Set9(Gosh)\gosh-i.jpg,i,0,21,21,21,,,,,,,,,128.44991560000926,,,,,,,,,,,,,,,,,,,,,,,,,,,128.4247747999907,128.44991560000926,129.44583030001377,129.44583030001377,129.44583030001377,129.47463929999503,132.50353660000837,1,[3.0858407999912743],[3.085891199996695],0,,,,,,,,,,,,,,,,,,,,,,,,,,,,,1ri,001,2023-11-26_18h49.16.449,CLT,2023.2.3,59.88694542806558,2023-11-26 18h49.50.971704 +0530,
C:\Users\Vinisha\Desktop\Lab in psychology\final assigment\Set 3 (Piet)\Piet-R.jpg,r,0,22,22,6,,,,,,,,,132.53015410000808,,,,,,,,,,,,,,,,,,,,,,,,,,,132.50560239999322,132.53015410000808,133.52458170001046,133.52458170001046,133.52458170001046,133.54915040000924,134.54119540000102,1,[1.0411947999964468],[1.0412138999963645],0,,,,,,,,,,,,,,,,,,,,,,,,,,,,,1ri,001,2023-11-26_18h49.16.449,CLT,2023.2.3,59.88694542806558,2023-11-26 18h49.50.971704 +0530,
C:\Users\Vinisha\Desktop\Lab in psychology\final assigment\Set8(Gosh)\gosh-i.jpg,i,0,23,23,20,,,,,,,,,134.83126169999014,,,,,,,,,,,,,,,,,,,,,,,,,,,134.54295000000275,134.83126169999014,135.56039769999916,135.56039769999916,135.56039769999916,135.85873509998783,141.32340640001348,1,[5.7909054000047036],[5.790923299995484],0,,,,,,,,,,,,,,,,,,,,,,,,,,,,,1ri,001,2023-11-26_18h49.16.449,CLT,2023.2.3,59.88694542806558,2023-11-26 18h49.50.971704 +0530,
C:\Users\Vinisha\Desktop\Lab in psychology\final assigment\Set 1 (Mark)\Mark-R.jpg,r,0,24,24,2,,,,,,,,,141.3537776999874,,,,,,,,,,,,,,,,,,,,,,,,,,,141.3254106999957,141.3537776999874,142.3354960999859,142.3354960999859,142.3354960999859,142.3774640999909,143.8114562999981,1,[1.4959903999988455],[1.496020899998257],0,,,,,,,,,,,,,,,,,,,,,,,,,,,,,1ri,001,2023-11-26_18h49.16.449,CLT,2023.2.3,59.88694542806558,2023-11-26 18h49.50.971704 +0530,
C:\Users\Vinisha\Desktop\Lab in psychology\final assigment\Set 4 (Piet)\Piet-N.jpg,n,0,25,25,9,,,,,,,,,143.8576205999998,,,,,,,,,,,,,,,,,,,,,,,,,,,143.81519759999355,143.8576205999998,144.83805399999255,144.83805399999255,144.83805399999255,144.88973560000886,147.66449500000454,0,,,1,[2.8515109000145458],[2.8515341999882367],,,,,,,,,,,,,,,,,,,,,,,,,,,1ri,001,2023-11-26_18h49.16.449,CLT,2023.2.3,59.88694542806558,2023-11-26 18h49.50.971704 +0530,
C:\Users\Vinisha\Desktop\Lab in psychology\final assigment\Set 4 (Piet)\Piet-I.jpg,i,0,26,26,11,,,,,,,,,147.7132028999913,,,,,,,,,,,,,,,,,,,,,,,,,,,147.6668331999972,147.7132028999913,148.68624350000755,148.68624350000755,148.68624350000755,148.72986970000784,154.5068453999993,0,,,1,[5.8447267999872565],[5.844751599972369],,,,,,,,,,,,,,,,,,,,,,,,,,,1ri,001,2023-11-26_18h49.16.449,CLT,2023.2.3,59.88694542806558,2023-11-26 18h49.50.971704 +0530,
C:\Users\Vinisha\Desktop\Lab in psychology\final assigment\Set9(Gosh)\gosh-r.jpg,r,0,27,27,23,,,,,,,,,154.52550869999686,,,,,,,,,,,,,,,,,,,,,,,,,,,154.50917760000448,154.52550869999686,155.53272129999823,155.53272129999823,155.53272129999823,155.55316989999847,157.25006709998706,1,[1.739550300000701],[1.7395763999957126],0,,,,,,,,,,,,,,,,,,,,,,,,,,,,,1ri,001,2023-11-26_18h49.16.449,CLT,2023.2.3,59.88694542806558,2023-11-26 18h49.50.971704 +0530,
C:\Users\Vinisha\Desktop\Lab in psychology\final assigment\Set 6 (Clifford)\Clifford-I1.jpg,i,0,28,28,15,,,,,,,,,157.29251369999838,,,,,,,,,,,,,,,,,,,,,,,,,,,157.2526901999954,157.29251369999838,158.26692399999592,158.26692399999592,158.26692399999592,158.31359919998795,160.39434800000163,1,[2.1512881999951787],[2.151321299985284],0,,,,,,,,,,,,,,,,,,,,,,,,,,,,,1ri,001,2023-11-26_18h49.16.449,CLT,2023.2.3,59.88694542806558,2023-11-26 18h49.50.971704 +0530,
C:\Users\Vinisha\Desktop\Lab in psychology\final assigment\Set12(salvador)\salvador-r.jpg,r,0,29,29,32,,,,,,,,,160.48161560000153,,,,,,,,,,,,,,,,,,,,,,,,,,,160.39705959998537,160.48161560000153,161.4119626999891,161.4119626999891,161.4119626999891,161.4935894999944,162.3800254999951,1,[0.9890459000016563],[0.9890688000014052],0,,,,,,,,,,,,,,,,,,,,,,,,,,,,,1ri,001,2023-11-26_18h49.16.449,CLT,2023.2.3,59.88694542806558,2023-11-26 18h49.50.971704 +0530,
C:\Users\Vinisha\Desktop\Lab in psychology\final assigment\Set11(Mich)\mich-n.jpg,n,0,30,30,28,,,,,,,,,162.4872039000038,,,,,,,,,,,,,,,,,,,,,,,,,,,162.38211639999645,162.4872039000038,163.389749199996,163.389749199996,163.389749199996,163.48892609999166,165.41950759998872,1,[2.0456522000022233],[2.045676200010348],0,,,,,,,,,,,,,,,,,,,,,,,,,,,,,1ri,001,2023-11-26_18h49.16.449,CLT,2023.2.3,59.88694542806558,2023-11-26 18h49.50.971704 +0530,
C:\Users\Vinisha\Desktop\Lab in psychology\final assigment\Set 3 (Piet)\Piet-N.jpg,n,0,31,31,8,,,,,,,,,165.46471299999394,,,,,,,,,,,,,,,,,,,,,,,,,,,165.4224327999982,165.46471299999394,166.44696120001026,166.44696120001026,166.44696120001026,166.49912079999922,168.83054110000376,1,[2.406909599987557],[2.406933199992636],0,,,,,,,,,,,,,,,,,,,,,,,,,,,,,1ri,001,2023-11-26_18h49.16.449,CLT,2023.2.3,59.88694542806558,2023-11-26 18h49.50.971704 +0530,
C:\Users\Vinisha\Desktop\Lab in psychology\final assigment\Set 4 (Piet)\Piet-R.jpg,r,0,32,32,10,,,,,,,,,168.88439029999427,,,,,,,,,,,,,,,,,,,,,,,,,,,168.83302930000355,168.88439029999427,169.83664260001387,169.83664260001387,169.83664260001387,169.88657319999766,171.16613689999213,1,[1.344314599991776],[1.3443420999974478],0,,,,,,,,,,,,,,,,,,,,,,,,,,,,,1ri,001,2023-11-26_18h49.16.449,CLT,2023.2.3,59.88694542806558,2023-11-26 18h49.50.971704 +0530,
C:\Users\Vinisha\Desktop\Lab in psychology\final assigment\Set 1 (Mark)\Mark-N.jpg,n,,,,,0,0,0,1,,,,,177.26477730000624,,,,,,,,,,,,,,,,,,,,,,,,,,,,,,,,,,,,,,,,171.1685759999964,171.18044100000407,177.26477730000624,177.1687920000113,177.21340720000444,177.26477730000624,178.21310210000956,178.21310210000956,178.28037170000607,183.9907150999934,4.855555555555556,6.706607500003884,,,,,,,,,,,,,,,1ri,001,2023-11-26_18h49.16.449,CLT,2023.2.3,59.88694542806558,2023-11-26 18h49.50.971704 +0530,
C:\Users\Vinisha\Desktop\Lab in psychology\final assigment\Set10(picasso)\picasso-n.jpg,n,,,,,0,1,1,25,,,,,184.0487540999893,,,,,,,,,,,,,,,,,,,,,,,,,,,,,,,,,,,,,,,,,,,,183.99210189998848,184.0487540999893,185.01929749999545,185.01929749999545,185.06214930000715,187.81599919998553,5.0777777777777775,3.7384441000176594,,,,,,,,,,,,,,,1ri,001,2023-11-26_18h49.16.449,CLT,2023.2.3,59.88694542806558,2023-11-26 18h49.50.971704 +0530,
C:\Users\Vinisha\Desktop\Lab in psychology\final assigment\Set9(Gosh)\gosh-i.jpg,i,,,,,0,2,2,21,,,,,187.85830679998617,,,,,,,,,,,,,,,,,,,,,,,,,,,,,,,,,,,,,,,,,,,,187.81724569998914,187.85830679998617,188.8642983000027,188.8642983000027,188.8937581999926,191.07670400000643,5.966666666666667,3.1990506000001915,,,,,,,,,,,,,,,1ri,001,2023-11-26_18h49.16.449,CLT,2023.2.3,59.88694542806558,2023-11-26 18h49.50.971704 +0530,
C:\Users\Vinisha\Desktop\Lab in psychology\final assigment\Set 4 (Piet)\Piet-I.jpg,i,,,,,0,3,3,11,,,,,191.1225526999915,,,,,,,,,,,,,,,,,,,,,,,,,,,,,,,,,,,,,,,,,,,,191.07784909999464,191.1225526999915,192.0984635000059,192.0984635000059,192.140876999998,194.89562240001396,4.111111111111111,3.7494224999973085,,,,,,,,,,,,,,,1ri,001,2023-11-26_18h49.16.449,CLT,2023.2.3,59.88694542806558,2023-11-26 18h49.50.971704 +0530,
C:\Users\Vinisha\Desktop\Lab in psychology\final assigment\Set 3 (Piet)\Piet-R.jpg,r,,,,,0,4,4,6,,,,,194.9404699000006,,,,,,,,,,,,,,,,,,,,,,,,,,,,,,,,,,,,,,,,,,,,194.8966259000008,194.9404699000006,195.93173149999348,195.93173149999348,195.952088799997,199.45882070000516,6.011111111111111,4.492178000014974,,,,,,,,,,,,,,,1ri,001,2023-11-26_18h49.16.449,CLT,2023.2.3,59.88694542806558,2023-11-26 18h49.50.971704 +0530,
C:\Users\Vinisha\Desktop\Lab in psychology\final assigment\Set 5 (Clifford)\Clifford-I.jpg,i,,,,,0,5,5,14,,,,,199.5955716999888,,,,,,,,,,,,,,,,,,,,,,,,,,,,,,,,,,,,,,,,,,,,199.4605462999898,199.5955716999888,200.48098789999494,200.48098789999494,200.61434780000127,202.01224740000907,6.011111111111111,2.392637500015553,,,,,,,,,,,,,,,1ri,001,2023-11-26_18h49.16.449,CLT,2023.2.3,59.88694542806558,2023-11-26 18h49.50.971704 +0530,
C:\Users\Vinisha\Desktop\Lab in psychology\final assigment\Set 4 (Piet)\Piet-N.jpg,n,,,,,0,6,6,9,,,,,202.05561069998657,,,,,,,,,,,,,,,,,,,,,,,,,,,,,,,,,,,,,,,,,,,,202.01308969999081,202.05561069998657,203.0455221000011,203.0455221000011,203.0654838999908,205.82606120000128,2.927777777777778,3.7409616999793798,,,,,,,,,,,,,,,1ri,001,2023-11-26_18h49.16.449,CLT,2023.2.3,59.88694542806558,2023-11-26 18h49.50.971704 +0530,
C:\Users\Vinisha\Desktop\Lab in psychology\final assigment\Set10(picasso)\picasso-i.jpg,i,,,,,0,7,7,24,,,,,205.90731499998947,,,,,,,,,,,,,,,,,,,,,,,,,,,,,,,,,,,,,,,,,,,,205.8273390000104,205.90731499998947,206.86303659999976,206.86303659999976,206.9287586999999,209.9352768000099,6.044444444444444,3.9776058999996167,,,,,,,,,,,,,,,1ri,001,2023-11-26_18h49.16.449,CLT,2023.2.3,59.88694542806558,2023-11-26 18h49.50.971704 +0530,
C:\Users\Vinisha\Desktop\Lab in psychology\final assigment\Set11(Mich)\mich-r.jpg,r,,,,,0,8,8,29,,,,,209.98006810000516,,,,,,,,,,,,,,,,,,,,,,,,,,,,,,,,,,,,,,,,,,,,209.93648100001155,209.98006810000516,210.96243899999536,210.96243899999536,210.98250399998506,216.048729800008,6.044444444444444,6.04947979998542,,,,,,,,,,,,,,,1ri,001,2023-11-26_18h49.16.449,CLT,2023.2.3,59.88694542806558,2023-11-26 18h49.50.971704 +0530,
C:\Users\Vinisha\Desktop\Lab in psychology\final assigment\Set 2 (Mark)\Mark-I.jpg,i,,,,,0,9,9,4,,,,,216.09180610001204,,,,,,,,,,,,,,,,,,,,,,,,,,,,,,,,,,,,,,,,,,,,216.04960679999203,216.09180610001204,217.07448449998628,217.07448449998628,217.09478839999065,219.85616560000926,4.083333333333333,3.7350838000129443,,,,,,,,,,,,,,,1ri,001,2023-11-26_18h49.16.449,CLT,2023.2.3,59.88694542806558,2023-11-26 18h49.50.971704 +0530,
C:\Users\Vinisha\Desktop\Lab in psychology\final assigment\Set 3 (Piet)\Piet-I.jpg,i,,,,,0,10,10,7,,,,,219.91052149998723,,,,,,,,,,,,,,,,,,,,,,,,,,,,,,,,,,,,,,,,,,,,219.85728619998554,219.91052149998723,220.89025900000706,220.89025900000706,220.9311611999874,224.24639419998857,4.961111111111111,4.309764500008896,,,,,,,,,,,,,,,1ri,001,2023-11-26_18h49.16.449,CLT,2023.2.3,59.88694542806558,2023-11-26 18h49.50.971704 +0530,
C:\Users\Vinisha\Desktop\Lab in psychology\final assigment\Set8(Gosh)\gosh-r.jpg,r,,,,,0,11,11,19,,,,,225.15884329998516,,,,,,,,,,,,,,,,,,,,,,,,,,,,,,,,,,,,,,,,,,,,224.24753739999142,225.15884329998516,225.32056180000654,225.32056180000654,226.18302110000513,228.4535109999997,5.955555555555556,3.2656580999901053,,,,,,,,,,,,,,,1ri,001,2023-11-26_18h49.16.449,CLT,2023.2.3,59.88694542806558,2023-11-26 18h49.50.971704 +0530,
C:\Users\Vinisha\Desktop\Lab in psychology\final assigment\Set 1 (Mark)\Mark-R.jpg,r,,,,,0,12,12,2,,,,,228.5033998999861,,,,,,,,,,,,,,,,,,,,,,,,,,,,,,,,,,,,,,,,,,,,228.45461869999417,228.5033998999861,229.4747944000119,229.4747944000119,229.50554929999635,231.8347214999958,4.916666666666667,3.312105800025165,,,,,,,,,,,,,,,1ri,001,2023-11-26_18h49.16.449,CLT,2023.2.3,59.88694542806558,2023-11-26 18h49.50.971704 +0530,
C:\Users\Vinisha\Desktop\Lab in psychology\final assigment\Set8(Gosh)\gosh-i.jpg,i,,,,,0,13,13,20,,,,,232.12135030000354,,,,,,,,,,,,,,,,,,,,,,,,,,,,,,,,,,,,,,,,,,,,231.83564679999836,232.12135030000354,232.87233109999215,232.87233109999215,233.12184549999074,235.2137001999945,3.9833333333333334,3.064586899999995,,,,,,,,,,,,,,,1ri,001,2023-11-26_18h49.16.449,CLT,2023.2.3,59.88694542806558,2023-11-26 18h49.50.971704 +0530,
C:\Users\Vinisha\Desktop\Lab in psychology\final assigment\Set 6 (Clifford)\Clifford-R.jpg,r,,,,,0,14,14,17,,,,,235.25652309998986,,,,,,,,,,,,,,,,,,,,,,,,,,,,,,,,,,,,,,,,,,,,235.2153513999947,235.25652309998986,236.23545099998591,236.23545099998591,236.27442770000198,237.77396819999558,3.9833333333333334,2.489301699999487,,,,,,,,,,,,,,,1ri,001,2023-11-26_18h49.16.449,CLT,2023.2.3,59.88694542806558,2023-11-26 18h49.50.971704 +0530,
C:\Users\Vinisha\Desktop\Lab in psychology\final assigment\Set11(Mich)\mich-i.jpg,i,,,,,0,15,15,27,,,,,237.89270649998798,,,,,,,,,,,,,,,,,,,,,,,,,,,,,,,,,,,,,,,,,,,,237.77523560001282,237.89270649998798,238.80686410001363,238.80686410001363,238.93343040000764,241.3915022999863,6.0,3.4764445000037085,,,,,,,,,,,,,,,1ri,001,2023-11-26_18h49.16.449,CLT,2023.2.3,59.88694542806558,2023-11-26 18h49.50.971704 +0530,
C:\Users\Vinisha\Desktop\Lab in psychology\final assigment\Set 1 (Mark)\Mark-I.jpg,i,,,,,0,16,16,0,,,,,241.4448105999909,,,,,,,,,,,,,,,,,,,,,,,,,,,,,,,,,,,,,,,,,,,,241.39247379999142,241.4448105999909,242.41697250001016,242.41697250001016,242.4589990999957,244.67835209998884,4.966666666666667,3.207510900014313,,,,,,,,,,,,,,,1ri,001,2023-11-26_18h49.16.449,CLT,2023.2.3,59.88694542806558,2023-11-26 18h49.50.971704 +0530,
C:\Users\Vinisha\Desktop\Lab in psychology\final assigment\Set12(salvador)\salvador-i.jpg,i,,,,,0,17,17,30,,,,,245.00990979999187,,,,,,,,,,,,,,,,,,,,,,,,,,,,,,,,,,,,,,,,,,,,244.67948140000226,245.00990979999187,245.70658739999635,245.70658739999635,246.03303379999124,247.3998258000065,4.966666666666667,2.371928900014609,,,,,,,,,,,,,,,1ri,001,2023-11-26_18h49.16.449,CLT,2023.2.3,59.88694542806558,2023-11-26 18h49.50.971704 +0530,
C:\Users\Vinisha\Desktop\Lab in psychology\final assigment\Set9(Gosh)\gosh-r.jpg,r,,,,,0,18,18,23,,,,,247.4258264999953,,,,,,,,,,,,,,,,,,,,,,,,,,,,,,,,,,,,,,,,,,,,247.4006694999989,247.4258264999953,248.4341848999902,248.4341848999902,248.45434830000158,251.26408029999584,3.977777777777778,3.8236820999882184,,,,,,,,,,,,,,,1ri,001,2023-11-26_18h49.16.449,CLT,2023.2.3,59.88694542806558,2023-11-26 18h49.50.971704 +0530,
C:\Users\Vinisha\Desktop\Lab in psychology\final assigment\Set 5 (Clifford)\Clifford-N.jpg,n,,,,,0,19,19,13,,,,,251.36392629999318,,,,,,,,,,,,,,,,,,,,,,,,,,,,,,,,,,,,,,,,,,,,251.26479950000066,251.36392629999318,252.29788570001256,252.29788570001256,252.36740540000028,256.7747335000022,3.0999999999999996,5.386170999991009,,,,,,,,,,,,,,,1ri,001,2023-11-26_18h49.16.449,CLT,2023.2.3,59.88694542806558,2023-11-26 18h49.50.971704 +0530,
C:\Users\Vinisha\Desktop\Lab in psychology\final assigment\Set8(Gosh)\gosh-n.jpg,n,,,,,0,20,20,18,,,,,256.9186469000124,,,,,,,,,,,,,,,,,,,,,,,,,,,,,,,,,,,,,,,,,,,,256.7758313000086,256.9186469000124,257.79662159999134,257.79662159999134,257.93129070001305,261.7324222000025,6.155555555555556,4.7957037999876775,,,,,,,,,,,,,,,1ri,001,2023-11-26_18h49.16.449,CLT,2023.2.3,59.88694542806558,2023-11-26 18h49.50.971704 +0530,
C:\Users\Vinisha\Desktop\Lab in psychology\final assigment\Set11(Mich)\mich-n.jpg,n,,,,,0,21,21,28,,,,,261.8187917000032,,,,,,,,,,,,,,,,,,,,,,,,,,,,,,,,,,,,,,,,,,,,261.73330220000935,261.8187917000032,262.75998130001244,262.75998130001244,262.8271425999992,264.50111260000267,6.155555555555556,2.656613400002243,,,,,,,,,,,,,,,1ri,001,2023-11-26_18h49.16.449,CLT,2023.2.3,59.88694542806558,2023-11-26 18h49.50.971704 +0530,
C:\Users\Vinisha\Desktop\Lab in psychology\final assigment\Set12(salvador)\salvador-r.jpg,r,,,,,0,22,22,32,,,,,264.58245290000923,,,,,,,,,,,,,,,,,,,,,,,,,,,,,,,,,,,,,,,,,,,,264.50220339998486,264.58245290000923,265.52085659999284,265.52085659999284,265.5986649999977,268.5730724000023,6.966666666666667,3.9703251000028104,,,,,,,,,,,,,,,1ri,001,2023-11-26_18h49.16.449,CLT,2023.2.3,59.88694542806558,2023-11-26 18h49.50.971704 +0530,
C:\Users\Vinisha\Desktop\Lab in psychology\final assigment\Set12(salvador)\salvador-n.jpg,n,,,,,0,23,23,31,,,,,268.61911379999947,,,,,,,,,,,,,,,,,,,,,,,,,,,,,,,,,,,,,,,,,,,,268.5740562999854,268.61911379999947,269.60386249999283,269.60386249999283,269.6227620000136,274.1542768999934,6.488888888888889,5.506718199991155,,,,,,,,,,,,,,,1ri,001,2023-11-26_18h49.16.449,CLT,2023.2.3,59.88694542806558,2023-11-26 18h49.50.971704 +0530,
C:\Users\Vinisha\Desktop\Lab in psychology\final assigment\Set 2 (Mark)\Mark-R.jpg,r,,,,,0,24,24,5,,,,,274.2312516999955,,,,,,,,,,,,,,,,,,,,,,,,,,,,,,,,,,,,,,,,,,,,274.1555527999881,274.2312516999955,275.19333050001296,275.19333050001296,275.2360986999993,278.1494814000034,4.627777777777778,3.8937894999980927,,,,,,,,,,,,,,,1ri,001,2023-11-26_18h49.16.449,CLT,2023.2.3,59.88694542806558,2023-11-26 18h49.50.971704 +0530,
C:\Users\Vinisha\Desktop\Lab in psychology\final assigment\Set10(picasso)\picasso-r.jpg,r,,,,,0,25,25,26,,,,,278.20885850000195,,,,,,,,,,,,,,,,,,,,,,,,,,,,,,,,,,,,,,,,,,,,278.15028679999523,278.20885850000195,279.1682923999906,279.1682923999906,279.22772789999726,281.5372165000008,6.227777777777778,3.305321699997876,,,,,,,,,,,,,,,1ri,001,2023-11-26_18h49.16.449,CLT,2023.2.3,59.88694542806558,2023-11-26 18h49.50.971704 +0530,
C:\Users\Vinisha\Desktop\Lab in psychology\final assigment\Set 6 (Clifford)\Clifford-N1.jpg,n,,,,,0,26,26,16,,,,,281.61076660000253,,,,,,,,,,,,,,,,,,,,,,,,,,,,,,,,,,,,,,,,,,,,281.53823679999914,281.61076660000253,282.5732566000079,282.5732566000079,282.6188575999986,285.57810730001074,3.3055555555555554,3.9386562000145204,,,,,,,,,,,,,,,1ri,001,2023-11-26_18h49.16.449,CLT,2023.2.3,59.88694542806558,2023-11-26 18h49.50.971704 +0530,
C:\Users\Vinisha\Desktop\Lab in psychology\final assigment\Set 3 (Piet)\Piet-N.jpg,n,,,,,0,27,27,8,,,,,285.6354711999884,,,,,,,,,,,,,,,,,,,,,,,,,,,,,,,,,,,,,,,,,,,,285.5793626999948,285.6354711999884,286.6076438000018,286.6076438000018,286.6513507000054,290.2421033999999,4.055555555555555,4.592325099976733,,,,,,,,,,,,,,,1ri,001,2023-11-26_18h49.16.449,CLT,2023.2.3,59.88694542806558,2023-11-26 18h49.50.971704 +0530,
C:\Users\Vinisha\Desktop\Lab in psychology\final assigment\Set 4 (Piet)\Piet-R.jpg,r,,,,,0,28,28,10,,,,,290.2804351999948,,,,,,,,,,,,,,,,,,,,,,,,,,,,,,,,,,,,,,,,,,,,290.2433017999865,290.2804351999948,291.27066360000754,291.27066360000754,291.2943096999952,293.76497680001194,5.861111111111111,3.4699216000153683,,,,,,,,,,,,,,,1ri,001,2023-11-26_18h49.16.449,CLT,2023.2.3,59.88694542806558,2023-11-26 18h49.50.971704 +0530,
C:\Users\Vinisha\Desktop\Lab in psychology\final assigment\Set9(Gosh)\gosh-n.jpg,n,,,,,0,29,29,22,,,,,293.82627580000553,,,,,,,,,,,,,,,,,,,,,,,,,,,,,,,,,,,,,,,,,,,,293.7656919999863,293.82627580000553,294.7984878999996,294.7984878999996,294.84657439999864,297.66510449998896,5.138888888888889,3.8128111000114586,,,,,,,,,,,,,,,1ri,001,2023-11-26_18h49.16.449,CLT,2023.2.3,59.88694542806558,2023-11-26 18h49.50.971704 +0530,
C:\Users\Vinisha\Desktop\Lab in psychology\final assigment\Set 2 (Mark)\Mark-N.jpg,n,,,,,0,30,30,3,,,,,297.7340475000092,,,,,,,,,,,,,,,,,,,,,,,,,,,,,,,,,,,,,,,,,,,,297.66639219998615,297.7340475000092,298.7030644000042,298.7030644000042,298.7494813000085,301.9853826999897,2.477777777777778,4.240628500003368,,,,,,,,,,,,,,,1ri,001,2023-11-26_18h49.16.449,CLT,2023.2.3,59.88694542806558,2023-11-26 18h49.50.971704 +0530,
C:\Users\Vinisha\Desktop\Lab in psychology\final assigment\Set 6 (Clifford)\Clifford-I1.jpg,i,,,,,0,31,31,15,,,,,302.0146950999915,,,,,,,,,,,,,,,,,,,,,,,,,,,,,,,,,,,,,,,,,,,,301.9860903999943,302.0146950999915,303.0146218999871,303.0146218999871,303.03685149998637,306.3715421000088,5.011111111111111,4.332210900000064,,,,,,,,,,,,,,,1ri,001,2023-11-26_18h49.16.449,CLT,2023.2.3,59.88694542806558,2023-11-26 18h49.50.971704 +0530,
C:\Users\Vinisha\Desktop\Lab in psychology\final assigment\Set 5 (Clifford)\Clifford-R.jpg,r,,,,,0,32,32,12,,,,,306.5189309999987,,,,,,,,,,,,,,,,,,,,,,,,,,,,,,,,,,,,,,,,,,,,306.37275149999186,306.5189309999987,307.3972405999957,307.3972405999957,307.5304591000022,312.22120860000723,6.4222222222222225,5.679436300008092,,,,,,,,,,,,,,,1ri,001,2023-11-26_18h49.16.449,CLT,2023.2.3,59.88694542806558,2023-11-26 18h49.50.971704 +0530,
C:\Users\Vinisha\Desktop\Lab in psychology\final assigment\Set11(Mich)\mich-n.jpg,n,,,,,,,,,0,0,0,28,318.4105280000076,,,,,,,,,,,,,,,,,,,,,,,,,,,,,,,,,,,,,,,,,,,,,,,,,,,,312.2217721999914,312.23038970000925,318.223470500001,318.2670020000078,318.4105280000076,319.2692732999858,319.2692732999858,319.4274879999866,321.9651697000081,5.927777777777778,3.5431274000147823,,,,1ri,001,2023-11-26_18h49.16.449,CLT,2023.2.3,59.88694542806558,2023-11-26 18h49.50.971704 +0530,
C:\Users\Vinisha\Desktop\Lab in psychology\final assigment\Set 3 (Piet)\Piet-R.jpg,r,,,,,,,,,0,1,1,6,322.00291109998943,,,,,,,,,,,,,,,,,,,,,,,,,,,,,,,,,,,,,,,,,,,,,,,,,,,,,,,321.96668939999654,322.00291109998943,322.99442229999113,322.99442229999113,323.0155292999989,324.6052925999975,5.927777777777778,2.5756054999947082,,,,1ri,001,2023-11-26_18h49.16.449,CLT,2023.2.3,59.88694542806558,2023-11-26 18h49.50.971704 +0530,
C:\Users\Vinisha\Desktop\Lab in psychology\final assigment\Set 5 (Clifford)\Clifford-R.jpg,r,,,,,,,,,0,2,2,12,324.7522980000067,,,,,,,,,,,,,,,,,,,,,,,,,,,,,,,,,,,,,,,,,,,,,,,,,,,,,,,324.6065227999934,324.7522980000067,325.64409570000134,325.64409570000134,325.758642700006,326.76106580000487,5.927777777777778,1.988669700018363,,,,1ri,001,2023-11-26_18h49.16.449,CLT,2023.2.3,59.88694542806558,2023-11-26 18h49.50.971704 +0530,
C:\Users\Vinisha\Desktop\Lab in psychology\final assigment\Set10(picasso)\picasso-r.jpg,r,,,,,,,,,0,3,3,26,326.8275122999912,,,,,,,,,,,,,,,,,,,,,,,,,,,,,,,,,,,,,,,,,,,,,,,,,,,,,,,326.76222159998724,326.8275122999912,327.7905929000117,327.7905929000117,327.83397129998775,328.910778999998,5.927777777777778,2.0666000000201166,,,,1ri,001,2023-11-26_18h49.16.449,CLT,2023.2.3,59.88694542806558,2023-11-26 18h49.50.971704 +0530,
C:\Users\Vinisha\Desktop\Lab in psychology\final assigment\Set8(Gosh)\gosh-i.jpg,i,,,,,,,,,0,4,4,20,329.18435560000944,,,,,,,,,,,,,,,,,,,,,,,,,,,,,,,,,,,,,,,,,,,,,,,,,,,,,,,328.9113701999886,329.18435560000944,329.94372839998687,329.94372839998687,330.1885057000036,332.0989558000001,3.0999999999999996,2.8933984999894165,,,,1ri,001,2023-11-26_18h49.16.449,CLT,2023.2.3,59.88694542806558,2023-11-26 18h49.50.971704 +0530,
C:\Users\Vinisha\Desktop\Lab in psychology\final assigment\Set 5 (Clifford)\Clifford-I.jpg,i,,,,,,,,,0,5,5,14,332.2373091999907,,,,,,,,,,,,,,,,,,,,,,,,,,,,,,,,,,,,,,,,,,,,,,,,,,,,,,,332.1000997000083,332.2373091999907,333.1220762000012,333.1220762000012,333.2469744000118,335.2189916000061,4.427777777777778,2.949821600021096,,,,1ri,001,2023-11-26_18h49.16.449,CLT,2023.2.3,59.88694542806558,2023-11-26 18h49.50.971704 +0530,
C:\Users\Vinisha\Desktop\Lab in psychology\final assigment\Set8(Gosh)\gosh-n.jpg,n,,,,,,,,,0,6,6,18,335.3841603999899,,,,,,,,,,,,,,,,,,,,,,,,,,,,,,,,,,,,,,,,,,,,,,,,,,,,,,,335.2203894999984,335.3841603999899,336.25552629999584,336.25552629999584,336.3936465999868,338.8359812000126,5.15,3.4355158999969717,,,,1ri,001,2023-11-26_18h49.16.449,CLT,2023.2.3,59.88694542806558,2023-11-26 18h49.50.971704 +0530,
C:\Users\Vinisha\Desktop\Lab in psychology\final assigment\Set 4 (Piet)\Piet-N.jpg,n,,,,,,,,,0,7,7,9,338.8633733000024,,,,,,,,,,,,,,,,,,,,,,,,,,,,,,,,,,,,,,,,,,,,,,,,,,,,,,,338.836667399999,338.8633733000024,339.8618725000124,339.8618725000124,339.87758790000225,342.67041359998984,3.033333333333333,3.783575600013137,,,,1ri,001,2023-11-26_18h49.16.449,CLT,2023.2.3,59.88694542806558,2023-11-26 18h49.50.971704 +0530,
C:\Users\Vinisha\Desktop\Lab in psychology\final assigment\Set 4 (Piet)\Piet-I.jpg,i,,,,,,,,,0,8,8,11,342.7167637000093,,,,,,,,,,,,,,,,,,,,,,,,,,,,,,,,,,,,,,,,,,,,,,,,,,,,,,,342.671603099996,342.7167637000093,343.702326300001,343.702326300001,343.7226953000063,344.8820287999988,3.033333333333333,2.1382019000011496,,,,1ri,001,2023-11-26_18h49.16.449,CLT,2023.2.3,59.88694542806558,2023-11-26 18h49.50.971704 +0530,
C:\Users\Vinisha\Desktop\Lab in psychology\final assigment\Set 2 (Mark)\Mark-N.jpg,n,,,,,,,,,0,9,9,3,344.9216526999953,,,,,,,,,,,,,,,,,,,,,,,,,,,,,,,,,,,,,,,,,,,,,,,,,,,,,,,344.8830425000051,344.9216526999953,345.91941639999277,345.91941639999277,345.9445502999879,347.45496360000107,3.033333333333333,2.5099743000173476,,,,1ri,001,2023-11-26_18h49.16.449,CLT,2023.2.3,59.88694542806558,2023-11-26 18h49.50.971704 +0530,
C:\Users\Vinisha\Desktop\Lab in psychology\final assigment\Set 3 (Piet)\Piet-I.jpg,i,,,,,,,,,0,10,10,7,347.5028672000044,,,,,,,,,,,,,,,,,,,,,,,,,,,,,,,,,,,,,,,,,,,,,,,,,,,,,,,347.4562214000034,347.5028672000044,348.4869891999988,348.4869891999988,348.50960099999793,351.17968090000795,5.088888888888889,3.656050999998115,,,,1ri,001,2023-11-26_18h49.16.449,CLT,2023.2.3,59.88694542806558,2023-11-26 18h49.50.971704 +0530,
C:\Users\Vinisha\Desktop\Lab in psychology\final assigment\Set12(salvador)\salvador-r.jpg,r,,,,,,,,,0,11,11,32,351.2321961999987,,,,,,,,,,,,,,,,,,,,,,,,,,,,,,,,,,,,,,,,,,,,,,,,,,,,,,,351.1807340999949,351.2321961999987,352.19769780000206,352.19769780000206,352.23943690001033,354.5990890999965,6.905555555555556,3.3487118000048213,,,,1ri,001,2023-11-26_18h49.16.449,CLT,2023.2.3,59.88694542806558,2023-11-26 18h49.50.971704 +0530,
C:\Users\Vinisha\Desktop\Lab in psychology\final assigment\Set 6 (Clifford)\Clifford-N1.jpg,n,,,,,,,,,0,12,12,16,354.65346619999036,,,,,,,,,,,,,,,,,,,,,,,,,,,,,,,,,,,,,,,,,,,,,,,,,,,,,,,354.5998444999859,354.65346619999036,355.6339605000103,355.6339605000103,355.67726850000327,359.17697150001186,3.0666666666666664,4.494393900007708,,,,1ri,001,2023-11-26_18h49.16.449,CLT,2023.2.3,59.88694542806558,2023-11-26 18h49.50.971704 +0530,
C:\Users\Vinisha\Desktop\Lab in psychology\final assigment\Set10(picasso)\picasso-n.jpg,n,,,,,,,,,0,13,13,25,359.237690799986,,,,,,,,,,,,,,,,,,,,,,,,,,,,,,,,,,,,,,,,,,,,,,,,,,,,,,,359.1782615999982,359.237690799986,360.19810760000837,360.19810760000837,360.24295759998495,362.94886730000144,5.944444444444445,3.689770099997986,,,,1ri,001,2023-11-26_18h49.16.449,CLT,2023.2.3,59.88694542806558,2023-11-26 18h49.50.971704 +0530,
C:\Users\Vinisha\Desktop\Lab in psychology\final assigment\Set11(Mich)\mich-r.jpg,r,,,,,,,,,0,14,14,29,363.0006892000092,,,,,,,,,,,,,,,,,,,,,,,,,,,,,,,,,,,,,,,,,,,,,,,,,,,,,,,362.94985480001196,363.0006892000092,363.9942324000003,363.9942324000003,364.02053010000964,365.23518749998766,5.944444444444445,2.2022946000215597,,,,1ri,001,2023-11-26_18h49.16.449,CLT,2023.2.3,59.88694542806558,2023-11-26 18h49.50.971704 +0530,
C:\Users\Vinisha\Desktop\Lab in psychology\final assigment\Set9(Gosh)\gosh-i.jpg,i,,,,,,,,,0,15,15,21,365.2768172000069,,,,,,,,,,,,,,,,,,,,,,,,,,,,,,,,,,,,,,,,,,,,,,,,,,,,,,,365.2364670000097,365.2768172000069,366.26606500000344,366.26606500000344,366.28857730000163,368.8917586999887,6.411111111111111,3.604934200004209,,,,1ri,001,2023-11-26_18h49.16.449,CLT,2023.2.3,59.88694542806558,2023-11-26 18h49.50.971704 +0530,
C:\Users\Vinisha\Desktop\Lab in psychology\final assigment\Set 3 (Piet)\Piet-N.jpg,n,,,,,,,,,0,16,16,8,368.9152235999936,,,,,,,,,,,,,,,,,,,,,,,,,,,,,,,,,,,,,,,,,,,,,,,,,,,,,,,368.8923064999981,368.9152235999936,369.92416429999867,369.92416429999867,369.9427114999853,373.0468603000045,4.016666666666667,4.1061083000095095,,,,1ri,001,2023-11-26_18h49.16.449,CLT,2023.2.3,59.88694542806558,2023-11-26 18h49.50.971704 +0530,
C:\Users\Vinisha\Desktop\Lab in psychology\final assigment\Set 4 (Piet)\Piet-R.jpg,r,,,,,,,,,0,17,17,10,373.0954158999957,,,,,,,,,,,,,,,,,,,,,,,,,,,,,,,,,,,,,,,,,,,,,,,,,,,,,,,373.0479947999993,373.0954158999957,374.0765784000105,374.0765784000105,374.12197070001275,376.34326009999495,6.05,3.230227400024887,,,,1ri,001,2023-11-26_18h49.16.449,CLT,2023.2.3,59.88694542806558,2023-11-26 18h49.50.971704 +0530,
C:\Users\Vinisha\Desktop\Lab in psychology\final assigment\Set9(Gosh)\gosh-n.jpg,n,,,,,,,,,0,18,18,22,376.3926841999928,,,,,,,,,,,,,,,,,,,,,,,,,,,,,,,,,,,,,,,,,,,,,,,,,,,,,,,376.3441921999911,376.3926841999928,377.37483640000573,377.37483640000573,377.41796500000055,378.6180608999857,6.05,2.1929047999728937,,,,1ri,001,2023-11-26_18h49.16.449,CLT,2023.2.3,59.88694542806558,2023-11-26 18h49.50.971704 +0530,
C:\Users\Vinisha\Desktop\Lab in psychology\final assigment\Set12(salvador)\salvador-i.jpg,i,,,,,,,,,0,19,19,30,378.8413920000021,,,,,,,,,,,,,,,,,,,,,,,,,,,,,,,,,,,,,,,,,,,,,,,,,,,,,,,378.61939479998546,378.8413920000021,379.6392620000115,379.6392620000115,379.85083660000237,382.1132751000114,6.85,3.246202500013169,,,,1ri,001,2023-11-26_18h49.16.449,CLT,2023.2.3,59.88694542806558,2023-11-26 18h49.50.971704 +0530,
C:\Users\Vinisha\Desktop\Lab in psychology\final assigment\Set9(Gosh)\gosh-r.jpg,r,,,,,,,,,0,20,20,23,382.20161260000896,,,,,,,,,,,,,,,,,,,,,,,,,,,,,,,,,,,,,,,,,,,,,,,,,,,,,,,382.1148056999955,382.20161260000896,383.1411165999889,383.1411165999889,383.2033158999984,385.6373639999947,4.0055555555555555,3.40562060000957,,,,1ri,001,2023-11-26_18h49.16.449,CLT,2023.2.3,59.88694542806558,2023-11-26 18h49.50.971704 +0530,
C:\Users\Vinisha\Desktop\Lab in psychology\final assigment\Set 1 (Mark)\Mark-R.jpg,r,,,,,,,,,0,21,21,2,385.69319650001125,,,,,,,,,,,,,,,,,,,,,,,,,,,,,,,,,,,,,,,,,,,,,,,,,,,,,,,385.63872059999267,385.69319650001125,386.6742525000009,386.6742525000009,386.7181506000052,389.06343519999064,4.0055555555555555,3.3435018000018317,,,,1ri,001,2023-11-26_18h49.16.449,CLT,2023.2.3,59.88694542806558,2023-11-26 18h49.50.971704 +0530,
C:\Users\Vinisha\Desktop\Lab in psychology\final assigment\Set 1 (Mark)\Mark-I.jpg,i,,,,,,,,,0,22,22,0,389.1345166999963,,,,,,,,,,,,,,,,,,,,,,,,,,,,,,,,,,,,,,,,,,,,,,,,,,,,,,,389.0647631000029,389.1345166999963,390.0886874999851,390.0886874999851,390.17125809998834,393.9725088000123,3.3722222222222222,4.82113450000179,,,,1ri,001,2023-11-26_18h49.16.449,CLT,2023.2.3,59.88694542806558,2023-11-26 18h49.50.971704 +0530,
C:\Users\Vinisha\Desktop\Lab in psychology\final assigment\Set 1 (Mark)\Mark-N.jpg,n,,,,,,,,,0,23,23,1,394.0077706000011,,,,,,,,,,,,,,,,,,,,,,,,,,,,,,,,,,,,,,,,,,,,,,,,,,,,,,,393.9737048000097,394.0077706000011,395.00153050001245,395.00153050001245,395.0208233000012,397.4602359000128,2.411111111111111,3.433991600002628,,,,1ri,001,2023-11-26_18h49.16.449,CLT,2023.2.3,59.88694542806558,2023-11-26 18h49.50.971704 +0530,
C:\Users\Vinisha\Desktop\Lab in psychology\final assigment\Set 2 (Mark)\Mark-R.jpg,r,,,,,,,,,0,24,24,5,397.5117944999947,,,,,,,,,,,,,,,,,,,,,,,,,,,,,,,,,,,,,,,,,,,,,,,,,,,,,,,397.46109359999537,397.5117944999947,398.48590500000864,398.48590500000864,398.5281401000102,401.2539490000054,3.8944444444444444,3.7260158999997657,,,,1ri,001,2023-11-26_18h49.16.449,CLT,2023.2.3,59.88694542806558,2023-11-26 18h49.50.971704 +0530,
C:\Users\Vinisha\Desktop\Lab in psychology\final assigment\Set 5 (Clifford)\Clifford-N.jpg,n,,,,,,,,,0,25,25,13,401.33576869999524,,,,,,,,,,,,,,,,,,,,,,,,,,,,,,,,,,,,,,,,,,,,,,,,,,,,,,,401.25466750000487,401.33576869999524,402.28394039999694,402.28394039999694,402.3454921999946,405.7794575000007,3.5833333333333335,4.42577820000588,,,,1ri,001,2023-11-26_18h49.16.449,CLT,2023.2.3,59.88694542806558,2023-11-26 18h49.50.971704 +0530,
C:\Users\Vinisha\Desktop\Lab in psychology\final assigment\Set10(picasso)\picasso-i.jpg,i,,,,,,,,,0,26,26,24,405.83751380001195,,,,,,,,,,,,,,,,,,,,,,,,,,,,,,,,,,,,,,,,,,,,,,,,,,,,,,,405.7802520999976,405.83751380001195,406.8128327000013,406.8128327000013,406.85098540000035,409.0809026999923,6.05,3.2114446999912616,,,,1ri,001,2023-11-26_18h49.16.449,CLT,2023.2.3,59.88694542806558,2023-11-26 18h49.50.971704 +0530,
C:\Users\Vinisha\Desktop\Lab in psychology\final assigment\Set11(Mich)\mich-i.jpg,i,,,,,,,,,0,27,27,27,409.28136759999325,,,,,,,,,,,,,,,,,,,,,,,,,,,,,,,,,,,,,,,,,,,,,,,,,,,,,,,409.0823051999905,409.28136759999325,410.11591500000213,410.11591500000213,410.2962928999914,411.3350711000094,6.05,2.0232543000020087,,,,1ri,001,2023-11-26_18h49.16.449,CLT,2023.2.3,59.88694542806558,2023-11-26 18h49.50.971704 +0530,
C:\Users\Vinisha\Desktop\Lab in psychology\final assigment\Set12(salvador)\salvador-n.jpg,n,,,,,,,,,0,28,28,31,411.37501069999416,,,,,,,,,,,,,,,,,,,,,,,,,,,,,,,,,,,,,,,,,,,,,,,,,,,,,,,411.33636379998643,411.37501069999416,412.36399240000173,412.36399240000173,412.38477430000785,414.0505688000121,6.05,2.66243310002028,,,,1ri,001,2023-11-26_18h49.16.449,CLT,2023.2.3,59.88694542806558,2023-11-26 18h49.50.971704 +0530,
C:\Users\Vinisha\Desktop\Lab in psychology\final assigment\Set 6 (Clifford)\Clifford-R.jpg,r,,,,,,,,,0,29,29,17,414.08400830000755,,,,,,,,,,,,,,,,,,,,,,,,,,,,,,,,,,,,,,,,,,,,,,,,,,,,,,,414.0515455999994,414.08400830000755,415.0832997999969,415.0832997999969,415.1055919000064,417.29472330000135,5.377777777777778,3.1874751999857835,,,,1ri,001,2023-11-26_18h49.16.449,CLT,2023.2.3,59.88694542806558,2023-11-26 18h49.50.971704 +0530,
C:\Users\Vinisha\Desktop\Lab in psychology\final assigment\Set 2 (Mark)\Mark-I.jpg,i,,,,,,,,,0,30,30,4,417.32489519999945,,,,,,,,,,,,,,,,,,,,,,,,,,,,,,,,,,,,,,,,,,,,,,,,,,,,,,,417.29572530000587,417.32489519999945,418.32674150000094,418.32674150000094,418.3484189999872,421.07016520001343,4.300000000000001,3.7211236000002827,,,,1ri,001,2023-11-26_18h49.16.449,CLT,2023.2.3,59.88694542806558,2023-11-26 18h49.50.971704 +0530,
C:\Users\Vinisha\Desktop\Lab in psychology\final assigment\Set8(Gosh)\gosh-r.jpg,r,,,,,,,,,0,31,31,19,421.93583699999726,,,,,,,,,,,,,,,,,,,,,,,,,,,,,,,,,,,,,,,,,,,,,,,,,,,,,,,421.0712446999969,421.93583699999726,422.13017879999825,422.13017879999825,422.9481717000017,425.6983491999854,5.061111111111111,3.7405258999788202,,,,1ri,001,2023-11-26_18h49.16.449,CLT,2023.2.3,59.88694542806558,2023-11-26 18h49.50.971704 +0530,
C:\Users\Vinisha\Desktop\Lab in psychology\final assigment\Set 6 (Clifford)\Clifford-I1.jpg,i,,,,,,,,,0,32,32,15,425.7333623000013,,,,,,,,,,,,,,,,,,,,,,,,,,,,,,,,,,,,,,,,,,,,,,,,,,,,,,,425.69917830001214,425.7333623000013,426.72289959999034,426.72289959999034,426.74054030000116,433.6329751999874,5.977777777777778,7.871399100025883,,,,1ri,001,2023-11-26_18h49.16.449,CLT,2023.2.3,59.88694542806558,2023-11-26 18h49.50.971704 +0530,
,,,,,,,,,,,,,,,,,,,,,,,433.6336930000107,433.73287919998984,433.73287919998984,,,,,439.7597056000086,2.05,6.0447754000197165,,,,,,,,,,,,,,,,,,,,,,,,,,,,,,,,,,,,,,,,,,,,,439.7597792999877,439.76956990000326,443.76780440000584,,,,,,,,
