pics,type,trials.thisRepN,trials.thisTrialN,trials.thisN,trials.thisIndex,trials_2.thisRepN,trials_2.thisTrialN,trials_2.thisN,trials_2.thisIndex,trials_3.thisRepN,trials_3.thisTrialN,trials_3.thisN,trials_3.thisIndex,thisRow.t,notes,welcome.started,text.started,key_resp.started,welcome.stopped,key_resp.keys,key_resp.rt,key_resp.duration,questions.started,question1.started,slideranswer.started,question1.stopped,slideranswer.stopped,question2.started,textbox.started,questions.stopped,slideranswer.response,slideranswer.rt,textbox.text,instruction1.started,text_2.started,key_resp_2.started,instruction1.stopped,key_resp_2.keys,key_resp_2.rt,key_resp_2.duration,experiment1.started,fixation1.started,image.started,buttontomorrow_1.started,buttoninayear_1.started,fixation1.stopped,experiment1.stopped,buttontomorrow_1.numClicks,buttontomorrow_1.timesOn,buttontomorrow_1.timesOff,buttoninayear_1.numClicks,buttoninayear_1.timesOn,buttoninayear_1.timesOff,instruction2.started,instruction.started,instruction2.stopped,experiment2.started,fixation_1.started,image_2.started,slider.started,fixation_1.stopped,experiment2.stopped,slider.response,slider.rt,instructions3.started,instruction_2.started,instructions3.stopped,experiment3.started,fixation_3.started,image_3.started,slider_2.started,fixation_3.stopped,experiment3.stopped,slider_2.response,slider_2.rt,thankyou.started,ThankYou.started,ThankYou.stopped,thankyou.stopped,participant,session,date,expName,psychopyVersion,frameRate,expStart,
,,,,,,,,,,,,,,,,0.003861700010020286,0.014367399999173358,0.014367399999173358,14.462231200013775,space,14.44456169998739,None,,,,,,,,,,,,,,,,,,,,,,,,,,,,,,,,,,,,,,,,,,,,,,,,,,,,,,,,,,2j,001,2023-11-26_19h25.06.964,CLT,2023.2.3,60.00682877322635,2023-11-26 19h25.56.712735 +0530,
,,,,,,,,,,,,,,,,,,,,,,,14.46232270001201,14.666686900018249,14.666686900018249,29.67896380001912,29.67896380001912,30.480944300012197,30.480944300012197,40.48235740000382,None,None,,40.48242750001373,40.49173999999766,40.49173999999766,48.16759739999543,space,7.668019600008847,None,,,,,,,,,,,,,,,,,,,,,,,,,,,,,,,,,,,,,,,,2j,001,2023-11-26_19h25.06.964,CLT,2023.2.3,60.00682877322635,2023-11-26 19h25.56.712735 +0530,
C:\Users\Vinisha\Desktop\Lab in psychology\final assigment\Set12(salvador)\salvador-n.jpg,n,0,0,0,31,,,,,,,,,48.23663170001237,,,,,,,,,,,,,,,,,,,,,,,,,,,48.20562890000292,48.23663170001237,49.22339379999903,49.22339379999903,49.22339379999903,49.251156600017566,55.89489190001041,1,[6.727680500014685],[6.727701399999205],0,,,,,,,,,,,,,,,,,,,,,,,,,,,,,2j,001,2023-11-26_19h25.06.964,CLT,2023.2.3,60.00682877322635,2023-11-26 19h25.56.712735 +0530,
C:\Users\Vinisha\Desktop\Lab in psychology\final assigment\Set 2 (Mark)\Mark-I.jpg,i,0,1,1,4,,,,,,,,,55.92817299999297,,,,,,,,,,,,,,,,,,,,,,,,,,,55.90999690000899,55.92817299999297,56.921873700019205,56.921873700019205,56.921873700019205,56.94562740001129,63.691758000000846,0,,,1,[6.793180000007851],[6.793222800013609],,,,,,,,,,,,,,,,,,,,,,,,,,,2j,001,2023-11-26_19h25.06.964,CLT,2023.2.3,60.00682877322635,2023-11-26 19h25.56.712735 +0530,
C:\Users\Vinisha\Desktop\Lab in psychology\final assigment\Set10(picasso)\picasso-i.jpg,i,0,2,2,24,,,,,,,,,63.81257259999984,,,,,,,,,,,,,,,,,,,,,,,,,,,63.69528889999492,63.81257259999984,64.73913180001546,64.73913180001546,64.73913180001546,64.82852710000589,68.27873409999302,1,[3.584002399991732],[3.5840167999849655],0,,,,,,,,,,,,,,,,,,,,,,,,,,,,,2j,001,2023-11-26_19h25.06.964,CLT,2023.2.3,60.00682877322635,2023-11-26 19h25.56.712735 +0530,
C:\Users\Vinisha\Desktop\Lab in psychology\final assigment\Set 3 (Piet)\Piet-N.jpg,n,0,3,3,8,,,,,,,,,68.3013546000002,,,,,,,,,,,,,,,,,,,,,,,,,,,68.280116000009,68.3013546000002,69.30250560000422,69.30250560000422,69.30250560000422,69.32889850001084,72.79432440001983,1,[3.516910899983486],[3.5169312999933027],0,,,,,,,,,,,,,,,,,,,,,,,,,,,,,2j,001,2023-11-26_19h25.06.964,CLT,2023.2.3,60.00682877322635,2023-11-26 19h25.56.712735 +0530,
C:\Users\Vinisha\Desktop\Lab in psychology\final assigment\Set9(Gosh)\gosh-r.jpg,r,0,4,4,23,,,,,,,,,72.82894530001795,,,,,,,,,,,,,,,,,,,,,,,,,,,72.79662150001968,72.82894530001795,73.81404620001558,73.81404620001558,73.81404620001558,73.83495010001934,81.61705420000362,0,,,1,[7.825089999998454],[7.825115599989658],,,,,,,,,,,,,,,,,,,,,,,,,,,2j,001,2023-11-26_19h25.06.964,CLT,2023.2.3,60.00682877322635,2023-11-26 19h25.56.712735 +0530,
C:\Users\Vinisha\Desktop\Lab in psychology\final assigment\Set9(Gosh)\gosh-i.jpg,i,0,5,5,21,,,,,,,,,81.64584539999487,,,,,,,,,,,,,,,,,,,,,,,,,,,81.61960460001137,81.64584539999487,82.6301783999952,82.6301783999952,82.6301783999952,82.65097240000614,85.27639710000949,1,[2.669622299988987],[2.6696435999765527],0,,,,,,,,,,,,,,,,,,,,,,,,,,,,,2j,001,2023-11-26_19h25.06.964,CLT,2023.2.3,60.00682877322635,2023-11-26 19h25.56.712735 +0530,
C:\Users\Vinisha\Desktop\Lab in psychology\final assigment\Set 5 (Clifford)\Clifford-I.jpg,i,0,6,6,14,,,,,,,,,85.48980080001638,,,,,,,,,,,,,,,,,,,,,,,,,,,85.27897899999516,85.48980080001638,86.29574600001797,86.29574600001797,86.29574600001797,86.4936770000204,91.53468010001234,1,[5.263038200006122],[5.2630594999936875],0,,,,,,,,,,,,,,,,,,,,,,,,,,,,,2j,001,2023-11-26_19h25.06.964,CLT,2023.2.3,60.00682877322635,2023-11-26 19h25.56.712735 +0530,
C:\Users\Vinisha\Desktop\Lab in psychology\final assigment\Set8(Gosh)\gosh-n.jpg,n,0,7,7,18,,,,,,,,,91.72345000001951,,,,,,,,,,,,,,,,,,,,,,,,,,,91.53675640001893,91.72345000001951,92.5628881000157,92.5628881000157,92.5628881000157,92.74980019999202,95.00413710001158,0,,,1,[2.4677931000187527],[2.4678179000038654],,,,,,,,,,,,,,,,,,,,,,,,,,,2j,001,2023-11-26_19h25.06.964,CLT,2023.2.3,60.00682877322635,2023-11-26 19h25.56.712735 +0530,
C:\Users\Vinisha\Desktop\Lab in psychology\final assigment\Set 6 (Clifford)\Clifford-N1.jpg,n,0,8,8,16,,,,,,,,,95.05981530001736,,,,,,,,,,,,,,,,,,,,,,,,,,,95.00631570001133,95.05981530001736,96.0360467999999,96.0360467999999,96.0360467999999,96.08800570000312,98.02356240001973,0,,,1,[2.0183667999808677],[2.018395499995677],,,,,,,,,,,,,,,,,,,,,,,,,,,2j,001,2023-11-26_19h25.06.964,CLT,2023.2.3,60.00682877322635,2023-11-26 19h25.56.712735 +0530,
C:\Users\Vinisha\Desktop\Lab in psychology\final assigment\Set 5 (Clifford)\Clifford-R.jpg,r,0,9,9,12,,,,,,,,,98.13977219999651,,,,,,,,,,,,,,,,,,,,,,,,,,,98.02689959999407,98.13977219999651,99.041675400018,99.041675400018,99.041675400018,99.15103430001182,100.81176589999814,1,[1.7934514000080526],[1.7934739000047557],0,,,,,,,,,,,,,,,,,,,,,,,,,,,,,2j,001,2023-11-26_19h25.06.964,CLT,2023.2.3,60.00682877322635,2023-11-26 19h25.56.712735 +0530,
C:\Users\Vinisha\Desktop\Lab in psychology\final assigment\Set8(Gosh)\gosh-i.jpg,i,0,10,10,20,,,,,,,,,101.18933769999421,,,,,,,,,,,,,,,,,,,,,,,,,,,100.81461390000186,101.18933769999421,101.82764820000739,101.82764820000739,101.82764820000739,102.20130919999792,102.82852919999277,1,[1.0279920999892056],[1.0280131999752484],0,,,,,,,,,,,,,,,,,,,,,,,,,,,,,2j,001,2023-11-26_19h25.06.964,CLT,2023.2.3,60.00682877322635,2023-11-26 19h25.56.712735 +0530,
C:\Users\Vinisha\Desktop\Lab in psychology\final assigment\Set 1 (Mark)\Mark-N.jpg,n,0,11,11,1,,,,,,,,,102.99234200001229,,,,,,,,,,,,,,,,,,,,,,,,,,,102.83110290000332,102.99234200001229,103.83998900000006,103.83998900000006,103.83998900000006,104.00687420001486,105.17659570000251,0,,,1,[1.3607810999965295],[1.3608314000011887],,,,,,,,,,,,,,,,,,,,,,,,,,,2j,001,2023-11-26_19h25.06.964,CLT,2023.2.3,60.00682877322635,2023-11-26 19h25.56.712735 +0530,
C:\Users\Vinisha\Desktop\Lab in psychology\final assigment\Set 1 (Mark)\Mark-I.jpg,i,0,12,12,0,,,,,,,,,105.22794650000287,,,,,,,,,,,,,,,,,,,,,,,,,,,105.17904230000568,105.22794650000287,106.18961880001007,106.18961880001007,106.18961880001007,106.23540490001324,110.98687210000935,0,,,1,[4.821582600008696],[4.82160580001073],,,,,,,,,,,,,,,,,,,,,,,,,,,2j,001,2023-11-26_19h25.06.964,CLT,2023.2.3,60.00682877322635,2023-11-26 19h25.56.712735 +0530,
C:\Users\Vinisha\Desktop\Lab in psychology\final assigment\Set 2 (Mark)\Mark-R.jpg,r,0,13,13,5,,,,,,,,,111.04104840001673,,,,,,,,,,,,,,,,,,,,,,,,,,,110.98917159999837,111.04104840001673,112.00558530000853,112.00558530000853,112.00558530000853,112.05340639999486,116.57391160001862,0,,,1,[4.593653099989751],[4.593674399977317],,,,,,,,,,,,,,,,,,,,,,,,,,,2j,001,2023-11-26_19h25.06.964,CLT,2023.2.3,60.00682877322635,2023-11-26 19h25.56.712735 +0530,
C:\Users\Vinisha\Desktop\Lab in psychology\final assigment\Set 4 (Piet)\Piet-I.jpg,i,0,14,14,11,,,,,,,,,116.6237492999935,,,,,,,,,,,,,,,,,,,,,,,,,,,116.57605940001667,116.6237492999935,117.58612140000332,117.58612140000332,117.58612140000332,117.637271900021,120.15187430000515,1,[2.589202100003604],[2.589225700008683],0,,,,,,,,,,,,,,,,,,,,,,,,,,,,,2j,001,2023-11-26_19h25.06.964,CLT,2023.2.3,60.00682877322635,2023-11-26 19h25.56.712735 +0530,
C:\Users\Vinisha\Desktop\Lab in psychology\final assigment\Set 4 (Piet)\Piet-N.jpg,n,0,15,15,9,,,,,,,,,120.20806219999213,,,,,,,,,,,,,,,,,,,,,,,,,,,120.15441930000088,120.20806219999213,121.16853530000662,121.16853530000662,121.16853530000662,121.21992390000378,122.82155809999676,0,,,1,[1.6774102000053972],[1.677434200013522],,,,,,,,,,,,,,,,,,,,,,,,,,,2j,001,2023-11-26_19h25.06.964,CLT,2023.2.3,60.00682877322635,2023-11-26 19h25.56.712735 +0530,
C:\Users\Vinisha\Desktop\Lab in psychology\final assigment\Set 3 (Piet)\Piet-R.jpg,r,0,16,16,6,,,,,,,,,122.8619902000064,,,,,,,,,,,,,,,,,,,,,,,,,,,122.82407110001077,122.8619902000064,123.83284950000234,123.83284950000234,123.83284950000234,123.87719980001566,125.61207960001775,1,[1.8017610000097193],[1.8017821999965236],0,,,,,,,,,,,,,,,,,,,,,,,,,,,,,2j,001,2023-11-26_19h25.06.964,CLT,2023.2.3,60.00682877322635,2023-11-26 19h25.56.712735 +0530,
C:\Users\Vinisha\Desktop\Lab in psychology\final assigment\Set 1 (Mark)\Mark-R.jpg,r,0,17,17,2,,,,,,,,,125.66017330001341,,,,,,,,,,,,,,,,,,,,,,,,,,,125.61457200002042,125.66017330001341,126.6323481000145,126.6323481000145,126.6323481000145,126.67663910001284,133.29019900001003,0,,,1,[6.681371499988018],[6.681392600003164],,,,,,,,,,,,,,,,,,,,,,,,,,,2j,001,2023-11-26_19h25.06.964,CLT,2023.2.3,60.00682877322635,2023-11-26 19h25.56.712735 +0530,
C:\Users\Vinisha\Desktop\Lab in psychology\final assigment\Set 3 (Piet)\Piet-I.jpg,i,0,18,18,7,,,,,,,,,133.33100560001913,,,,,,,,,,,,,,,,,,,,,,,,,,,133.29230180001468,133.33100560001913,134.3132666000165,134.3132666000165,134.3132666000165,134.35996990001877,136.05293679999886,1,[1.7627994999929797],[1.7628262999933213],0,,,,,,,,,,,,,,,,,,,,,,,,,,,,,2j,001,2023-11-26_19h25.06.964,CLT,2023.2.3,60.00682877322635,2023-11-26 19h25.56.712735 +0530,
C:\Users\Vinisha\Desktop\Lab in psychology\final assigment\Set11(Mich)\mich-r.jpg,r,0,19,19,29,,,,,,,,,136.1288676999975,,,,,,,,,,,,,,,,,,,,,,,,,,,136.05529220000608,136.1288676999975,137.0800206999993,137.0800206999993,137.0800206999993,137.1466725000064,140.33284280000953,0,,,1,[3.276730100013083],[3.2767546999966726],,,,,,,,,,,,,,,,,,,,,,,,,,,2j,001,2023-11-26_19h25.06.964,CLT,2023.2.3,60.00682877322635,2023-11-26 19h25.56.712735 +0530,
C:\Users\Vinisha\Desktop\Lab in psychology\final assigment\Set10(picasso)\picasso-r.jpg,r,0,20,20,26,,,,,,,,,140.40624939999543,,,,,,,,,,,,,,,,,,,,,,,,,,,140.33558889999404,140.40624939999543,141.34575000000768,141.34575000000768,141.34575000000768,141.41885069999262,144.1342311000044,1,[2.810922300006496],[2.810949900012929],0,,,,,,,,,,,,,,,,,,,,,,,,,,,,,2j,001,2023-11-26_19h25.06.964,CLT,2023.2.3,60.00682877322635,2023-11-26 19h25.56.712735 +0530,
C:\Users\Vinisha\Desktop\Lab in psychology\final assigment\Set 2 (Mark)\Mark-N.jpg,n,0,21,21,3,,,,,,,,,144.16938880001544,,,,,,,,,,,,,,,,,,,,,,,,,,,144.13725940001314,144.16938880001544,145.16167970001698,145.16167970001698,145.16167970001698,145.18562030000612,146.81349890001002,0,,,1,[1.676353700022446],[1.6763818000035826],,,,,,,,,,,,,,,,,,,,,,,,,,,2j,001,2023-11-26_19h25.06.964,CLT,2023.2.3,60.00682877322635,2023-11-26 19h25.56.712735 +0530,
C:\Users\Vinisha\Desktop\Lab in psychology\final assigment\Set 4 (Piet)\Piet-R.jpg,r,0,22,22,10,,,,,,,,,146.86623220000183,,,,,,,,,,,,,,,,,,,,,,,,,,,146.81661130001885,146.86623220000183,147.82767550001154,147.82767550001154,147.82767550001154,147.874544899998,149.65691990000778,1,[1.8534961999976076],[1.853518800024176],0,,,,,,,,,,,,,,,,,,,,,,,,,,,,,2j,001,2023-11-26_19h25.06.964,CLT,2023.2.3,60.00682877322635,2023-11-26 19h25.56.712735 +0530,
C:\Users\Vinisha\Desktop\Lab in psychology\final assigment\Set9(Gosh)\gosh-n.jpg,n,0,23,23,22,,,,,,,,,149.70981080000638,,,,,,,,,,,,,,,,,,,,,,,,,,,149.66058019999764,149.70981080000638,150.67640510000638,150.67640510000638,150.67640510000638,150.7246584999957,152.0187913000118,1,[1.3667825000011362],[1.3668072999862488],0,,,,,,,,,,,,,,,,,,,,,,,,,,,,,2j,001,2023-11-26_19h25.06.964,CLT,2023.2.3,60.00682877322635,2023-11-26 19h25.56.712735 +0530,
C:\Users\Vinisha\Desktop\Lab in psychology\final assigment\Set 5 (Clifford)\Clifford-N.jpg,n,0,24,24,13,,,,,,,,,152.1601741000195,,,,,,,,,,,,,,,,,,,,,,,,,,,152.02167390001705,152.1601741000195,153.05069239999284,153.05069239999284,153.05069239999284,153.19752030001837,155.26981840000371,0,,,1,[2.2513826999929734],[2.2514115999802016],,,,,,,,,,,,,,,,,,,,,,,,,,,2j,001,2023-11-26_19h25.06.964,CLT,2023.2.3,60.00682877322635,2023-11-26 19h25.56.712735 +0530,
C:\Users\Vinisha\Desktop\Lab in psychology\final assigment\Set12(salvador)\salvador-i.jpg,i,0,25,25,30,,,,,,,,,155.54649820001214,,,,,,,,,,,,,,,,,,,,,,,,,,,155.27305109999725,155.54649820001214,156.29323430001386,156.29323430001386,156.29323430001386,156.57058640001924,162.2883395999961,1,[6.021577999985311],[6.021599600004265],0,,,,,,,,,,,,,,,,,,,,,,,,,,,,,2j,001,2023-11-26_19h25.06.964,CLT,2023.2.3,60.00682877322635,2023-11-26 19h25.56.712735 +0530,
C:\Users\Vinisha\Desktop\Lab in psychology\final assigment\Set11(Mich)\mich-n.jpg,n,0,26,26,28,,,,,,,,,162.42339820001507,,,,,,,,,,,,,,,,,,,,,,,,,,,162.290730800014,162.42339820001507,163.30705960001796,163.30705960001796,163.30705960001796,163.42868270000326,167.7098754000035,0,,,1,[4.428441199997906],[4.428469900012715],,,,,,,,,,,,,,,,,,,,,,,,,,,2j,001,2023-11-26_19h25.06.964,CLT,2023.2.3,60.00682877322635,2023-11-26 19h25.56.712735 +0530,
C:\Users\Vinisha\Desktop\Lab in psychology\final assigment\Set8(Gosh)\gosh-r.jpg,r,0,27,27,19,,,,,,,,,168.6013638000004,,,,,,,,,,,,,,,,,,,,,,,,,,,167.7126179000188,168.6013638000004,168.76717930001905,168.76717930001905,168.76717930001905,169.61198929999955,170.03296440001577,0,,,1,[1.321520999976201],[1.3215420999913476],,,,,,,,,,,,,,,,,,,,,,,,,,,2j,001,2023-11-26_19h25.06.964,CLT,2023.2.3,60.00682877322635,2023-11-26 19h25.56.712735 +0530,
C:\Users\Vinisha\Desktop\Lab in psychology\final assigment\Set11(Mich)\mich-i.jpg,i,0,28,28,27,,,,,,,,,170.15122600001632,,,,,,,,,,,,,,,,,,,,,,,,,,,170.03502909999224,170.15122600001632,171.05206810001982,171.05206810001982,171.05206810001982,171.16565020001144,173.15097879999666,0,,,1,[2.122351500001969],[2.122375600010855],,,,,,,,,,,,,,,,,,,,,,,,,,,2j,001,2023-11-26_19h25.06.964,CLT,2023.2.3,60.00682877322635,2023-11-26 19h25.56.712735 +0530,
C:\Users\Vinisha\Desktop\Lab in psychology\final assigment\Set10(picasso)\picasso-n.jpg,n,0,29,29,25,,,,,,,,,173.18879330001073,,,,,,,,,,,,,,,,,,,,,,,,,,,173.15332370001124,173.18879330001073,174.16654490001383,174.16654490001383,174.16654490001383,174.2175117000006,175.2122772000148,0,,,1,[1.068548200011719],[1.0685659000009764],,,,,,,,,,,,,,,,,,,,,,,,,,,2j,001,2023-11-26_19h25.06.964,CLT,2023.2.3,60.00682877322635,2023-11-26 19h25.56.712735 +0530,
C:\Users\Vinisha\Desktop\Lab in psychology\final assigment\Set 6 (Clifford)\Clifford-R.jpg,r,0,30,30,17,,,,,,,,,175.24635110000963,,,,,,,,,,,,,,,,,,,,,,,,,,,175.21435650001513,175.24635110000963,176.2344992000144,176.2344992000144,176.2344992000144,176.25537950001308,178.60839169999235,1,[2.397518999991007],[2.3975419999915175],0,,,,,,,,,,,,,,,,,,,,,,,,,,,,,2j,001,2023-11-26_19h25.06.964,CLT,2023.2.3,60.00682877322635,2023-11-26 19h25.56.712735 +0530,
C:\Users\Vinisha\Desktop\Lab in psychology\final assigment\Set 6 (Clifford)\Clifford-I1.jpg,i,0,31,31,15,,,,,,,,,178.65063630000805,,,,,,,,,,,,,,,,,,,,,,,,,,,178.61112820002018,178.65063630000805,179.63469480001368,179.63469480001368,179.63469480001368,179.6559372000047,189.61823160000495,0,,,0,,,,,,,,,,,,,,,,,,,,,,,,,,,,,2j,001,2023-11-26_19h25.06.964,CLT,2023.2.3,60.00682877322635,2023-11-26 19h25.56.712735 +0530,
C:\Users\Vinisha\Desktop\Lab in psychology\final assigment\Set12(salvador)\salvador-r.jpg,r,0,32,32,32,,,,,,,,,189.70659129999694,,,,,,,,,,,,,,,,,,,,,,,,,,,189.62069519999204,189.70659129999694,190.63079510000534,190.63079510000534,190.63079510000534,190.72411040001316,197.42782680000528,0,,,1,[6.822329300019192],[6.8223469000076875],,,,,,,,,,,,,,,,,,,,,,,,,,,2j,001,2023-11-26_19h25.06.964,CLT,2023.2.3,60.00682877322635,2023-11-26 19h25.56.712735 +0530,
C:\Users\Vinisha\Desktop\Lab in psychology\final assigment\Set 1 (Mark)\Mark-I.jpg,i,,,,,0,0,0,0,,,,,203.52653560001636,,,,,,,,,,,,,,,,,,,,,,,,,,,,,,,,,,,,,,,,197.42918599999393,197.4373942000093,203.43281100000604,203.4655752000108,203.52653560001636,204.46647470002063,204.46647470002063,204.54016220002086,209.04614419999416,4.944444444444445,5.492744499992114,,,,,,,,,,,,,,,,2j,001,2023-11-26_19h25.06.964,CLT,2023.2.3,60.00682877322635,2023-11-26 19h25.56.712735 +0530,
C:\Users\Vinisha\Desktop\Lab in psychology\final assigment\Set9(Gosh)\gosh-i.jpg,i,,,,,0,1,1,21,,,,,209.10222729999805,,,,,,,,,,,,,,,,,,,,,,,,,,,,,,,,,,,,,,,,,,,209.04794970000512,209.10222729999805,210.074239700014,210.074239700014,210.11811730000773,216.51746980001917,4.083333333333333,7.380150799988769,,,,,,,,,,,,,,,,2j,001,2023-11-26_19h25.06.964,CLT,2023.2.3,60.00682877322635,2023-11-26 19h25.56.712735 +0530,
C:\Users\Vinisha\Desktop\Lab in psychology\final assigment\Set 3 (Piet)\Piet-N.jpg,n,,,,,0,2,2,8,,,,,216.57623770000646,,,,,,,,,,,,,,,,,,,,,,,,,,,,,,,,,,,,,,,,,,,216.51938579999842,216.57623770000646,217.5496501000016,217.5496501000016,217.59259960000054,219.2049801000103,4.083333333333333,2.5965302000113297,,,,,,,,,,,,,,,,2j,001,2023-11-26_19h25.06.964,CLT,2023.2.3,60.00682877322635,2023-11-26 19h25.56.712735 +0530,
C:\Users\Vinisha\Desktop\Lab in psychology\final assigment\Set 5 (Clifford)\Clifford-I.jpg,i,,,,,0,3,3,14,,,,,219.4411043,,,,,,,,,,,,,,,,,,,,,,,,,,,,,,,,,,,,,,,,,,,219.20650230001775,219.4411043,220.2355424000125,220.2355424000125,220.46657059999416,226.25524920001044,4.916666666666667,6.778896200004965,,,,,,,,,,,,,,,,2j,001,2023-11-26_19h25.06.964,CLT,2023.2.3,60.00682877322635,2023-11-26 19h25.56.712735 +0530,
C:\Users\Vinisha\Desktop\Lab in psychology\final assigment\Set10(picasso)\picasso-r.jpg,r,,,,,0,4,4,26,,,,,226.34435530001065,,,,,,,,,,,,,,,,,,,,,,,,,,,,,,,,,,,,,,,,,,,226.25647920000483,226.34435530001065,227.27990300001693,227.27990300001693,227.36892860001535,230.6117946000013,6.105555555555555,4.242217599996366,,,,,,,,,,,,,,,,2j,001,2023-11-26_19h25.06.964,CLT,2023.2.3,60.00682877322635,2023-11-26 19h25.56.712735 +0530,
C:\Users\Vinisha\Desktop\Lab in psychology\final assigment\Set 6 (Clifford)\Clifford-R.jpg,r,,,,,0,5,5,17,,,,,230.65104240001529,,,,,,,,,,,,,,,,,,,,,,,,,,,,,,,,,,,,,,,,,,,230.61276800002088,230.65104240001529,231.64298810000764,231.64298810000764,231.66277270001592,235.14866110001458,4.9944444444444445,4.476420199993299,,,,,,,,,,,,,,,,2j,001,2023-11-26_19h25.06.964,CLT,2023.2.3,60.00682877322635,2023-11-26 19h25.56.712735 +0530,
C:\Users\Vinisha\Desktop\Lab in psychology\final assigment\Set12(salvador)\salvador-n.jpg,n,,,,,0,6,6,31,,,,,235.1835854999954,,,,,,,,,,,,,,,,,,,,,,,,,,,,,,,,,,,,,,,,,,,235.1499340000155,235.1835854999954,236.17524609999964,236.17524609999964,236.1950124000141,243.87761170000886,5.9833333333333325,8.665570600016508,,,,,,,,,,,,,,,,2j,001,2023-11-26_19h25.06.964,CLT,2023.2.3,60.00682877322635,2023-11-26 19h25.56.712735 +0530,
C:\Users\Vinisha\Desktop\Lab in psychology\final assigment\Set 2 (Mark)\Mark-N.jpg,n,,,,,0,7,7,3,,,,,243.929595900001,,,,,,,,,,,,,,,,,,,,,,,,,,,,,,,,,,,,,,,,,,,243.8788814000145,243.929595900001,244.90868860000046,244.90868860000046,244.9694444000197,247.86057459999574,2.0,3.9099579000030644,,,,,,,,,,,,,,,,2j,001,2023-11-26_19h25.06.964,CLT,2023.2.3,60.00682877322635,2023-11-26 19h25.56.712735 +0530,
C:\Users\Vinisha\Desktop\Lab in psychology\final assigment\Set8(Gosh)\gosh-i.jpg,i,,,,,0,8,8,20,,,,,248.23732230000314,,,,,,,,,,,,,,,,,,,,,,,,,,,,,,,,,,,,,,,,,,,247.86157999999705,248.23732230000314,248.8942742999934,248.8942742999934,249.24086399999214,255.72118560000672,4.916666666666667,7.465081500005908,,,,,,,,,,,,,,,,2j,001,2023-11-26_19h25.06.964,CLT,2023.2.3,60.00682877322635,2023-11-26 19h25.56.712735 +0530,
C:\Users\Vinisha\Desktop\Lab in psychology\final assigment\Set 1 (Mark)\Mark-R.jpg,r,,,,,0,9,9,2,,,,,255.80066189999343,,,,,,,,,,,,,,,,,,,,,,,,,,,,,,,,,,,,,,,,,,,255.722047999996,255.80066189999343,256.75029270001687,256.75029270001687,256.8086561000091,258.9245293000131,2.0444444444444443,3.0911440000054426,,,,,,,,,,,,,,,,2j,001,2023-11-26_19h25.06.964,CLT,2023.2.3,60.00682877322635,2023-11-26 19h25.56.712735 +0530,
C:\Users\Vinisha\Desktop\Lab in psychology\final assigment\Set 5 (Clifford)\Clifford-N.jpg,n,,,,,0,10,10,13,,,,,259.0643431000062,,,,,,,,,,,,,,,,,,,,,,,,,,,,,,,,,,,,,,,,,,,258.92582770000445,259.0643431000062,259.9542977999954,259.9542977999954,260.08909409999615,261.41164150001714,2.0444444444444443,2.313863500021398,,,,,,,,,,,,,,,,2j,001,2023-11-26_19h25.06.964,CLT,2023.2.3,60.00682877322635,2023-11-26 19h25.56.712735 +0530,
C:\Users\Vinisha\Desktop\Lab in psychology\final assigment\Set9(Gosh)\gosh-r.jpg,r,,,,,0,11,11,23,,,,,261.45031200000085,,,,,,,,,,,,,,,,,,,,,,,,,,,,,,,,,,,,,,,,,,,261.4130084000062,261.45031200000085,262.4379117000208,262.4379117000208,262.4594302000187,265.3518901000207,3.9611111111111112,3.8794667000183836,,,,,,,,,,,,,,,,2j,001,2023-11-26_19h25.06.964,CLT,2023.2.3,60.00682877322635,2023-11-26 19h25.56.712735 +0530,
C:\Users\Vinisha\Desktop\Lab in psychology\final assigment\Set 4 (Piet)\Piet-N.jpg,n,,,,,0,12,12,9,,,,,265.3954360000207,,,,,,,,,,,,,,,,,,,,,,,,,,,,,,,,,,,,,,,,,,,265.3528828000126,265.3954360000207,266.3815253000066,266.3815253000066,266.402273100015,268.030700400006,2.0277777777777777,2.608363699982874,,,,,,,,,,,,,,,,2j,001,2023-11-26_19h25.06.964,CLT,2023.2.3,60.00682877322635,2023-11-26 19h25.56.712735 +0530,
C:\Users\Vinisha\Desktop\Lab in psychology\final assigment\Set 6 (Clifford)\Clifford-N1.jpg,n,,,,,0,13,13,16,,,,,268.0916666999983,,,,,,,,,,,,,,,,,,,,,,,,,,,,,,,,,,,,,,,,,,,268.031739500002,268.0916666999983,269.05846990001737,269.05846990001737,269.09735630001524,270.03769789999933,2.0277777777777777,1.9252387000015005,,,,,,,,,,,,,,,,2j,001,2023-11-26_19h25.06.964,CLT,2023.2.3,60.00682877322635,2023-11-26 19h25.56.712735 +0530,
C:\Users\Vinisha\Desktop\Lab in psychology\final assigment\Set12(salvador)\salvador-i.jpg,i,,,,,0,14,14,30,,,,,270.22404940001434,,,,,,,,,,,,,,,,,,,,,,,,,,,,,,,,,,,,,,,,,,,270.03865440000664,270.22404940001434,271.06274749999284,271.06274749999284,271.2369375000126,277.99396710001747,6.95,7.750097600015579,,,,,,,,,,,,,,,,2j,001,2023-11-26_19h25.06.964,CLT,2023.2.3,60.00682877322635,2023-11-26 19h25.56.712735 +0530,
C:\Users\Vinisha\Desktop\Lab in psychology\final assigment\Set 4 (Piet)\Piet-I.jpg,i,,,,,0,15,15,11,,,,,278.04381360000116,,,,,,,,,,,,,,,,,,,,,,,,,,,,,,,,,,,,,,,,,,,277.9948845000181,278.04381360000116,279.01557670001057,279.01557670001057,279.0457954000158,281.22851909999736,4.133333333333334,3.160021699994104,,,,,,,,,,,,,,,,2j,001,2023-11-26_19h25.06.964,CLT,2023.2.3,60.00682877322635,2023-11-26 19h25.56.712735 +0530,
C:\Users\Vinisha\Desktop\Lab in psychology\final assigment\Set 3 (Piet)\Piet-I.jpg,i,,,,,0,16,16,7,,,,,281.27738610000233,,,,,,,,,,,,,,,,,,,,,,,,,,,,,,,,,,,,,,,,,,,281.22980960001587,281.27738610000233,282.2612544000149,282.2612544000149,282.281307199999,285.16923769999994,4.016666666666667,3.8628210999886505,,,,,,,,,,,,,,,,2j,001,2023-11-26_19h25.06.964,CLT,2023.2.3,60.00682877322635,2023-11-26 19h25.56.712735 +0530,
C:\Users\Vinisha\Desktop\Lab in psychology\final assigment\Set11(Mich)\mich-r.jpg,r,,,,,0,17,17,29,,,,,285.2364415000193,,,,,,,,,,,,,,,,,,,,,,,,,,,,,,,,,,,,,,,,,,,285.1705026999989,285.2364415000193,286.1930030999938,286.1930030999938,286.25882790001924,288.3753904000041,1.9666666666666666,3.113296299998183,,,,,,,,,,,,,,,,2j,001,2023-11-26_19h25.06.964,CLT,2023.2.3,60.00682877322635,2023-11-26 19h25.56.712735 +0530,
C:\Users\Vinisha\Desktop\Lab in psychology\final assigment\Set11(Mich)\mich-n.jpg,n,,,,,0,18,18,28,,,,,288.5147207000118,,,,,,,,,,,,,,,,,,,,,,,,,,,,,,,,,,,,,,,,,,,288.37649090000195,288.5147207000118,289.40303909999784,289.40303909999784,289.51785220002057,295.1197828000004,4.011111111111111,6.579726500000106,,,,,,,,,,,,,,,,2j,001,2023-11-26_19h25.06.964,CLT,2023.2.3,60.00682877322635,2023-11-26 19h25.56.712735 +0530,
C:\Users\Vinisha\Desktop\Lab in psychology\final assigment\Set 4 (Piet)\Piet-R.jpg,r,,,,,0,19,19,10,,,,,295.16577720001806,,,,,,,,,,,,,,,,,,,,,,,,,,,,,,,,,,,,,,,,,,,295.120991600008,295.16577720001806,296.13808030000655,296.13808030000655,296.1785744999943,299.5851427000016,5.094444444444444,4.383976799988886,,,,,,,,,,,,,,,,2j,001,2023-11-26_19h25.06.964,CLT,2023.2.3,60.00682877322635,2023-11-26 19h25.56.712735 +0530,
C:\Users\Vinisha\Desktop\Lab in psychology\final assigment\Set11(Mich)\mich-i.jpg,i,,,,,0,20,20,27,,,,,299.7127540000074,,,,,,,,,,,,,,,,,,,,,,,,,,,,,,,,,,,,,,,,,,,299.5864438000135,299.7127540000074,300.6084689999989,300.6084689999989,300.7200720999972,304.6487940000079,4.05,4.891520100005437,,,,,,,,,,,,,,,,2j,001,2023-11-26_19h25.06.964,CLT,2023.2.3,60.00682877322635,2023-11-26 19h25.56.712735 +0530,
C:\Users\Vinisha\Desktop\Lab in psychology\final assigment\Set 3 (Piet)\Piet-R.jpg,r,,,,,0,21,21,6,,,,,304.7005749999953,,,,,,,,,,,,,,,,,,,,,,,,,,,,,,,,,,,,,,,,,,,304.65057369999704,304.7005749999953,305.6757137000095,305.6757137000095,305.7239627999952,311.2050650000165,6.044444444444444,6.480886100005591,,,,,,,,,,,,,,,,2j,001,2023-11-26_19h25.06.964,CLT,2023.2.3,60.00682877322635,2023-11-26 19h25.56.712735 +0530,
C:\Users\Vinisha\Desktop\Lab in psychology\final assigment\Set12(salvador)\salvador-r.jpg,r,,,,,0,22,22,32,,,,,311.27393019999727,,,,,,,,,,,,,,,,,,,,,,,,,,,,,,,,,,,,,,,,,,,311.206062000012,311.27393019999727,312.23672800001805,312.23672800001805,312.28014489999623,314.5756715000025,2.0833333333333335,3.267264399997657,,,,,,,,,,,,,,,,2j,001,2023-11-26_19h25.06.964,CLT,2023.2.3,60.00682877322635,2023-11-26 19h25.56.712735 +0530,
C:\Users\Vinisha\Desktop\Lab in psychology\final assigment\Set10(picasso)\picasso-n.jpg,n,,,,,0,23,23,25,,,,,314.6352644000144,,,,,,,,,,,,,,,,,,,,,,,,,,,,,,,,,,,,,,,,,,,314.5769441000011,314.6352644000144,315.6040334000136,315.6040334000136,315.6549037999939,317.5738315000199,1.9666666666666666,2.91503860001103,,,,,,,,,,,,,,,,2j,001,2023-11-26_19h25.06.964,CLT,2023.2.3,60.00682877322635,2023-11-26 19h25.56.712735 +0530,
C:\Users\Vinisha\Desktop\Lab in psychology\final assigment\Set 6 (Clifford)\Clifford-I1.jpg,i,,,,,0,24,24,15,,,,,317.6183807000052,,,,,,,,,,,,,,,,,,,,,,,,,,,,,,,,,,,,,,,,,,,317.5750024000008,317.6183807000052,318.6030083000078,318.6030083000078,318.6263387000072,320.5351663000183,3.0611111111111113,2.900639700004831,,,,,,,,,,,,,,,,2j,001,2023-11-26_19h25.06.964,CLT,2023.2.3,60.00682877322635,2023-11-26 19h25.56.712735 +0530,
C:\Users\Vinisha\Desktop\Lab in psychology\final assigment\Set 5 (Clifford)\Clifford-R.jpg,r,,,,,0,25,25,12,,,,,320.6353323000076,,,,,,,,,,,,,,,,,,,,,,,,,,,,,,,,,,,,,,,,,,,320.5359234000207,320.6353323000076,321.5674215000181,321.5674215000181,321.65951970001333,325.7707837000198,6.96111111111111,5.108882799977437,,,,,,,,,,,,,,,,2j,001,2023-11-26_19h25.06.964,CLT,2023.2.3,60.00682877322635,2023-11-26 19h25.56.712735 +0530,
C:\Users\Vinisha\Desktop\Lab in psychology\final assigment\Set10(picasso)\picasso-i.jpg,i,,,,,0,26,26,24,,,,,325.8446036000096,,,,,,,,,,,,,,,,,,,,,,,,,,,,,,,,,,,,,,,,,,,325.7717746999988,325.8446036000096,326.7971017000091,326.7971017000091,326.86334890002036,328.988743599999,5.027777777777778,3.1122638000233565,,,,,,,,,,,,,,,,2j,001,2023-11-26_19h25.06.964,CLT,2023.2.3,60.00682877322635,2023-11-26 19h25.56.712735 +0530,
C:\Users\Vinisha\Desktop\Lab in psychology\final assigment\Set8(Gosh)\gosh-r.jpg,r,,,,,0,27,27,19,,,,,329.8992846000183,,,,,,,,,,,,,,,,,,,,,,,,,,,,,,,,,,,,,,,,,,,328.990120500006,329.8992846000183,330.07408760002,330.07408760002,330.90908420001506,331.6439073999936,1.9333333333333333,1.724147200002335,,,,,,,,,,,,,,,,2j,001,2023-11-26_19h25.06.964,CLT,2023.2.3,60.00682877322635,2023-11-26 19h25.56.712735 +0530,
C:\Users\Vinisha\Desktop\Lab in psychology\final assigment\Set 1 (Mark)\Mark-N.jpg,n,,,,,0,28,28,1,,,,,331.6726398000028,,,,,,,,,,,,,,,,,,,,,,,,,,,,,,,,,,,,,,,,,,,331.64463100000285,331.6726398000028,332.684465600003,332.684465600003,332.7068504000199,333.844431000005,1.9333333333333333,2.1536517000058666,,,,,,,,,,,,,,,,2j,001,2023-11-26_19h25.06.964,CLT,2023.2.3,60.00682877322635,2023-11-26 19h25.56.712735 +0530,
C:\Users\Vinisha\Desktop\Lab in psychology\final assigment\Set 2 (Mark)\Mark-R.jpg,r,,,,,0,29,29,5,,,,,333.8903471000085,,,,,,,,,,,,,,,,,,,,,,,,,,,,,,,,,,,,,,,,,,,333.84518430000753,333.8903471000085,334.8888391999935,334.8888391999935,334.9109201999963,335.97961020001094,1.9333333333333333,2.0708233999903314,,,,,,,,,,,,,,,,2j,001,2023-11-26_19h25.06.964,CLT,2023.2.3,60.00682877322635,2023-11-26 19h25.56.712735 +0530,
C:\Users\Vinisha\Desktop\Lab in psychology\final assigment\Set 2 (Mark)\Mark-I.jpg,i,,,,,0,30,30,4,,,,,336.00672309999936,,,,,,,,,,,,,,,,,,,,,,,,,,,,,,,,,,,,,,,,,,,335.98049740001443,336.00672309999936,337.01623649999965,337.01623649999965,337.0386856000114,342.3140324999986,2.011111111111111,6.287547499989159,,,,,,,,,,,,,,,,2j,001,2023-11-26_19h25.06.964,CLT,2023.2.3,60.00682877322635,2023-11-26 19h25.56.712735 +0530,
C:\Users\Vinisha\Desktop\Lab in psychology\final assigment\Set8(Gosh)\gosh-n.jpg,n,,,,,0,31,31,18,,,,,342.43585310000344,,,,,,,,,,,,,,,,,,,,,,,,,,,,,,,,,,,,,,,,,,,342.31499549999717,342.43585310000344,343.3438307000033,343.3438307000033,343.458323400002,350.17645359999733,5.011111111111111,7.719861800025683,,,,,,,,,,,,,,,,2j,001,2023-11-26_19h25.06.964,CLT,2023.2.3,60.00682877322635,2023-11-26 19h25.56.712735 +0530,
C:\Users\Vinisha\Desktop\Lab in psychology\final assigment\Set9(Gosh)\gosh-n.jpg,n,,,,,0,32,32,22,,,,,350.219324900012,,,,,,,,,,,,,,,,,,,,,,,,,,,,,,,,,,,,,,,,,,,350.1773523000011,350.219324900012,351.20323169999756,351.20323169999756,351.22100390002015,354.53074790001847,4.9944444444444445,4.277730500005418,,,,,,,,,,,,,,,,2j,001,2023-11-26_19h25.06.964,CLT,2023.2.3,60.00682877322635,2023-11-26 19h25.56.712735 +0530,
C:\Users\Vinisha\Desktop\Lab in psychology\final assigment\Set10(picasso)\picasso-i.jpg,i,,,,,,,,,0,0,0,24,360.6385880000016,,,,,,,,,,,,,,,,,,,,,,,,,,,,,,,,,,,,,,,,,,,,,,,,,,,354.53160170000046,354.5417939000181,360.53408159999526,360.5651348000101,360.6385880000016,361.56539760000305,361.56539760000305,361.65619989999686,367.0840446999937,2.011111111111111,6.414388000004692,,,,,2j,001,2023-11-26_19h25.06.964,CLT,2023.2.3,60.00682877322635,2023-11-26 19h25.56.712735 +0530,
C:\Users\Vinisha\Desktop\Lab in psychology\final assigment\Set8(Gosh)\gosh-i.jpg,i,,,,,,,,,0,1,1,20,367.30223390000174,,,,,,,,,,,,,,,,,,,,,,,,,,,,,,,,,,,,,,,,,,,,,,,,,,,,,,367.0857764999964,367.30223390000174,368.1377480000083,368.1377480000083,368.31787210001494,373.3048861999996,2.9944444444444445,5.972617199993692,,,,,2j,001,2023-11-26_19h25.06.964,CLT,2023.2.3,60.00682877322635,2023-11-26 19h25.56.712735 +0530,
C:\Users\Vinisha\Desktop\Lab in psychology\final assigment\Set 6 (Clifford)\Clifford-N1.jpg,n,,,,,,,,,0,2,2,16,373.44769630001974,,,,,,,,,,,,,,,,,,,,,,,,,,,,,,,,,,,,,,,,,,,,,,,,,,,,,,373.3062634000089,373.44769630001974,374.32836010001483,374.32836010001483,374.45010089999414,377.4716120999947,6.916666666666667,4.00067370000761,,,,,2j,001,2023-11-26_19h25.06.964,CLT,2023.2.3,60.00682877322635,2023-11-26 19h25.56.712735 +0530,
C:\Users\Vinisha\Desktop\Lab in psychology\final assigment\Set9(Gosh)\gosh-r.jpg,r,,,,,,,,,0,3,3,23,377.5218805000186,,,,,,,,,,,,,,,,,,,,,,,,,,,,,,,,,,,,,,,,,,,,,,,,,,,,,,377.4728579999937,377.5218805000186,378.49801539999316,378.49801539999316,378.5421925999981,380.6810293000017,2.0055555555555555,3.137713600008283,,,,,2j,001,2023-11-26_19h25.06.964,CLT,2023.2.3,60.00682877322635,2023-11-26 19h25.56.712735 +0530,
C:\Users\Vinisha\Desktop\Lab in psychology\final assigment\Set10(picasso)\picasso-n.jpg,n,,,,,,,,,0,4,4,25,380.72211309999693,,,,,,,,,,,,,,,,,,,,,,,,,,,,,,,,,,,,,,,,,,,,,,,,,,,,,,380.6820328000176,380.72211309999693,381.71284809999634,381.71284809999634,381.73359479999635,383.93880070000887,6.994444444444444,3.1808708000171464,,,,,2j,001,2023-11-26_19h25.06.964,CLT,2023.2.3,60.00682877322635,2023-11-26 19h25.56.712735 +0530,
C:\Users\Vinisha\Desktop\Lab in psychology\final assigment\Set 1 (Mark)\Mark-N.jpg,n,,,,,,,,,0,5,5,1,383.9889487000182,,,,,,,,,,,,,,,,,,,,,,,,,,,,,,,,,,,,,,,,,,,,,,,,,,,,,,383.94023820001166,383.9889487000182,384.96883990001515,384.96883990001515,385.0115796000173,385.7428087000153,6.994444444444444,1.725385700003244,,,,,2j,001,2023-11-26_19h25.06.964,CLT,2023.2.3,60.00682877322635,2023-11-26 19h25.56.712735 +0530,
C:\Users\Vinisha\Desktop\Lab in psychology\final assigment\Set 5 (Clifford)\Clifford-I.jpg,i,,,,,,,,,0,6,6,14,385.8840714000107,,,,,,,,,,,,,,,,,,,,,,,,,,,,,,,,,,,,,,,,,,,,,,,,,,,,,,385.7441155000124,385.8840714000107,386.7831584000087,386.7831584000087,386.90064820001135,388.5186485000013,1.0222222222222221,2.599422400002368,,,,,2j,001,2023-11-26_19h25.06.964,CLT,2023.2.3,60.00682877322635,2023-11-26 19h25.56.712735 +0530,
C:\Users\Vinisha\Desktop\Lab in psychology\final assigment\Set11(Mich)\mich-i.jpg,i,,,,,,,,,0,7,7,27,388.7065347000025,,,,,,,,,,,,,,,,,,,,,,,,,,,,,,,,,,,,,,,,,,,,,,,,,,,,,,388.52004050000687,388.7065347000025,389.55533239999204,389.55533239999204,389.72755800001323,391.8111106000142,2.0277777777777777,3.068453000014415,,,,,2j,001,2023-11-26_19h25.06.964,CLT,2023.2.3,60.00682877322635,2023-11-26 19h25.56.712735 +0530,
C:\Users\Vinisha\Desktop\Lab in psychology\final assigment\Set 3 (Piet)\Piet-I.jpg,i,,,,,,,,,0,8,8,7,391.8645511000068,,,,,,,,,,,,,,,,,,,,,,,,,,,,,,,,,,,,,,,,,,,,,,,,,,,,,,391.81254199999967,391.8645511000068,392.8402888000128,392.8402888000128,392.8840037000191,396.964939700003,2.9722222222222223,5.077064800017979,,,,,2j,001,2023-11-26_19h25.06.964,CLT,2023.2.3,60.00682877322635,2023-11-26 19h25.56.712735 +0530,
C:\Users\Vinisha\Desktop\Lab in psychology\final assigment\Set 6 (Clifford)\Clifford-I1.jpg,i,,,,,,,,,0,9,9,15,397.00798240001313,,,,,,,,,,,,,,,,,,,,,,,,,,,,,,,,,,,,,,,,,,,,,,,,,,,,,,396.9660466000205,397.00798240001313,397.99210870001116,397.99210870001116,398.01505829999223,401.53128330002073,4.905555555555555,4.505569300003117,,,,,2j,001,2023-11-26_19h25.06.964,CLT,2023.2.3,60.00682877322635,2023-11-26 19h25.56.712735 +0530,
C:\Users\Vinisha\Desktop\Lab in psychology\final assigment\Set10(picasso)\picasso-r.jpg,r,,,,,,,,,0,10,10,26,401.58511310000904,,,,,,,,,,,,,,,,,,,,,,,,,,,,,,,,,,,,,,,,,,,,,,,,,,,,,,401.53213810001034,401.58511310000904,402.5540269000048,402.5540269000048,402.58986430001096,406.7979142999975,1,5.19817509999848,,,,,2j,001,2023-11-26_19h25.06.964,CLT,2023.2.3,60.00682877322635,2023-11-26 19h25.56.712735 +0530,
C:\Users\Vinisha\Desktop\Lab in psychology\final assigment\Set9(Gosh)\gosh-i.jpg,i,,,,,,,,,0,11,11,21,406.8209857000038,,,,,,,,,,,,,,,,,,,,,,,,,,,,,,,,,,,,,,,,,,,,,,,,,,,,,,406.79862899999716,406.8209857000038,407.82348880000063,407.82348880000063,407.84437340000295,409.9672792000056,2.0055555555555555,3.1275598000211176,,,,,2j,001,2023-11-26_19h25.06.964,CLT,2023.2.3,60.00682877322635,2023-11-26 19h25.56.712735 +0530,
C:\Users\Vinisha\Desktop\Lab in psychology\final assigment\Set12(salvador)\salvador-i.jpg,i,,,,,,,,,0,12,12,30,410.14692689999356,,,,,,,,,,,,,,,,,,,,,,,,,,,,,,,,,,,,,,,,,,,,,,,,,,,,,,409.96813799999654,410.14692689999356,410.9856961000187,410.9856961000187,411.15526590001537,412.08186320000095,2.0055555555555555,1.9087763999996241,,,,,2j,001,2023-11-26_19h25.06.964,CLT,2023.2.3,60.00682877322635,2023-11-26 19h25.56.712735 +0530,
C:\Users\Vinisha\Desktop\Lab in psychology\final assigment\Set 3 (Piet)\Piet-R.jpg,r,,,,,,,,,0,13,13,6,412.1252026000002,,,,,,,,,,,,,,,,,,,,,,,,,,,,,,,,,,,,,,,,,,,,,,,,,,,,,,412.08311979999417,412.1252026000002,413.1179439999978,413.1179439999978,413.1396066000161,414.7278956999944,2.0055555555555555,2.57514890001039,,,,,2j,001,2023-11-26_19h25.06.964,CLT,2023.2.3,60.00682877322635,2023-11-26 19h25.56.712735 +0530,
C:\Users\Vinisha\Desktop\Lab in psychology\final assigment\Set8(Gosh)\gosh-r.jpg,r,,,,,,,,,0,14,14,19,415.6711104999995,,,,,,,,,,,,,,,,,,,,,,,,,,,,,,,,,,,,,,,,,,,,,,,,,,,,,,414.72923680001986,415.6711104999995,415.79254480000236,415.79254480000236,416.6836638000095,418.228721099993,1,2.525902199995471,,,,,2j,001,2023-11-26_19h25.06.964,CLT,2023.2.3,60.00682877322635,2023-11-26 19h25.56.712735 +0530,
C:\Users\Vinisha\Desktop\Lab in psychology\final assigment\Set 2 (Mark)\Mark-I.jpg,i,,,,,,,,,0,15,15,4,418.2636326000211,,,,,,,,,,,,,,,,,,,,,,,,,,,,,,,,,,,,,,,,,,,,,,,,,,,,,,418.22992710000835,418.2636326000211,419.23798830001033,419.23798830001033,419.2659709000145,421.7917610000004,2.077777777777778,3.498245199996745,,,,,2j,001,2023-11-26_19h25.06.964,CLT,2023.2.3,60.00682877322635,2023-11-26 19h25.56.712735 +0530,
C:\Users\Vinisha\Desktop\Lab in psychology\final assigment\Set12(salvador)\salvador-n.jpg,n,,,,,,,,,0,16,16,31,421.8297445999924,,,,,,,,,,,,,,,,,,,,,,,,,,,,,,,,,,,,,,,,,,,,,,,,,,,,,,421.7930522999959,421.8297445999924,422.82107430000906,422.82107430000906,422.8425974000129,426.88162709999597,2.977777777777778,5.036193499981891,,,,,2j,001,2023-11-26_19h25.06.964,CLT,2023.2.3,60.00682877322635,2023-11-26 19h25.56.712735 +0530,
C:\Users\Vinisha\Desktop\Lab in psychology\final assigment\Set 2 (Mark)\Mark-R.jpg,r,,,,,,,,,0,17,17,5,426.9530922000122,,,,,,,,,,,,,,,,,,,,,,,,,,,,,,,,,,,,,,,,,,,,,,,,,,,,,,426.88290810000035,426.9530922000122,427.92281950000324,427.92281950000324,427.97701130001224,433.18603189999703,4.027777777777778,6.210447999997996,,,,,2j,001,2023-11-26_19h25.06.964,CLT,2023.2.3,60.00682877322635,2023-11-26 19h25.56.712735 +0530,
C:\Users\Vinisha\Desktop\Lab in psychology\final assigment\Set 4 (Piet)\Piet-R.jpg,r,,,,,,,,,0,18,18,10,433.23400820000097,,,,,,,,,,,,,,,,,,,,,,,,,,,,,,,,,,,,,,,,,,,,,,,,,,,,,,433.1870245000173,433.23400820000097,434.2140538000094,434.2140538000094,434.2551619000151,436.77915550000034,3.0277777777777777,3.5212250000040513,,,,,2j,001,2023-11-26_19h25.06.964,CLT,2023.2.3,60.00682877322635,2023-11-26 19h25.56.712735 +0530,
C:\Users\Vinisha\Desktop\Lab in psychology\final assigment\Set11(Mich)\mich-n.jpg,n,,,,,,,,,0,19,19,28,436.8512515000184,,,,,,,,,,,,,,,,,,,,,,,,,,,,,,,,,,,,,,,,,,,,,,,,,,,,,,436.78040819999296,436.8512515000184,437.81141120000393,437.81141120000393,437.87351060000947,439.4501106000098,3.0277777777777777,2.5559479000221472,,,,,2j,001,2023-11-26_19h25.06.964,CLT,2023.2.3,60.00682877322635,2023-11-26 19h25.56.712735 +0530,
C:\Users\Vinisha\Desktop\Lab in psychology\final assigment\Set11(Mich)\mich-r.jpg,r,,,,,,,,,0,20,20,29,439.52297109999927,,,,,,,,,,,,,,,,,,,,,,,,,,,,,,,,,,,,,,,,,,,,,,,,,,,,,,439.45157950001885,439.52297109999927,440.47787020000396,440.47787020000396,440.53798839999945,444.5794212000037,1.1277777777777778,5.025089599977946,,,,,2j,001,2023-11-26_19h25.06.964,CLT,2023.2.3,60.00682877322635,2023-11-26 19h25.56.712735 +0530,
C:\Users\Vinisha\Desktop\Lab in psychology\final assigment\Set 1 (Mark)\Mark-I.jpg,i,,,,,,,,,0,21,21,0,444.641836099996,,,,,,,,,,,,,,,,,,,,,,,,,,,,,,,,,,,,,,,,,,,,,,,,,,,,,,444.5809708000161,444.641836099996,445.6141537000076,445.6141537000076,445.6576285000192,450.5466496000008,3.05,5.884894600021653,,,,,2j,001,2023-11-26_19h25.06.964,CLT,2023.2.3,60.00682877322635,2023-11-26 19h25.56.712735 +0530,
C:\Users\Vinisha\Desktop\Lab in psychology\final assigment\Set 5 (Clifford)\Clifford-N.jpg,n,,,,,,,,,0,22,22,13,450.64503330001025,,,,,,,,,,,,,,,,,,,,,,,,,,,,,,,,,,,,,,,,,,,,,,,,,,,,,,450.5477799999935,450.64503330001025,451.57974740001373,451.57974740001373,451.6613645000034,453.3904015000153,6.955555555555556,2.7147273999871686,,,,,2j,001,2023-11-26_19h25.06.964,CLT,2023.2.3,60.00682877322635,2023-11-26 19h25.56.712735 +0530,
C:\Users\Vinisha\Desktop\Lab in psychology\final assigment\Set 6 (Clifford)\Clifford-R.jpg,r,,,,,,,,,0,23,23,17,453.432383700012,,,,,,,,,,,,,,,,,,,,,,,,,,,,,,,,,,,,,,,,,,,,,,,,,,,,,,453.39164869999513,453.432383700012,454.42014170001494,454.42014170001494,454.4338032999949,457.8687329000095,1,4.425420199986547,,,,,2j,001,2023-11-26_19h25.06.964,CLT,2023.2.3,60.00682877322635,2023-11-26 19h25.56.712735 +0530,
C:\Users\Vinisha\Desktop\Lab in psychology\final assigment\Set 1 (Mark)\Mark-R.jpg,r,,,,,,,,,0,24,24,2,457.8932238999987,,,,,,,,,,,,,,,,,,,,,,,,,,,,,,,,,,,,,,,,,,,,,,,,,,,,,,457.869279800012,457.8932238999987,458.888844000001,458.888844000001,458.90979440000956,461.66693090001354,2.872222222222222,3.756689700006973,,,,,2j,001,2023-11-26_19h25.06.964,CLT,2023.2.3,60.00682877322635,2023-11-26 19h25.56.712735 +0530,
C:\Users\Vinisha\Desktop\Lab in psychology\final assigment\Set12(salvador)\salvador-r.jpg,r,,,,,,,,,0,25,25,32,461.7040393000061,,,,,,,,,,,,,,,,,,,,,,,,,,,,,,,,,,,,,,,,,,,,,,,,,,,,,,461.66748350000125,461.7040393000061,462.686967000016,462.686967000016,462.70701090001967,468.89342710000346,2.988888888888889,7.158621500013396,,,,,2j,001,2023-11-26_19h25.06.964,CLT,2023.2.3,60.00682877322635,2023-11-26 19h25.56.712735 +0530,
C:\Users\Vinisha\Desktop\Lab in psychology\final assigment\Set 4 (Piet)\Piet-N.jpg,n,,,,,,,,,0,26,26,9,468.9468365999928,,,,,,,,,,,,,,,,,,,,,,,,,,,,,,,,,,,,,,,,,,,,,,,,,,,,,,468.89453970000613,468.9468365999928,469.9228162000072,469.9228162000072,469.9658543000114,471.69838290000916,6.933333333333334,2.727142699994147,,,,,2j,001,2023-11-26_19h25.06.964,CLT,2023.2.3,60.00682877322635,2023-11-26 19h25.56.712735 +0530,
C:\Users\Vinisha\Desktop\Lab in psychology\final assigment\Set 4 (Piet)\Piet-I.jpg,i,,,,,,,,,0,27,27,11,471.75106450001476,,,,,,,,,,,,,,,,,,,,,,,,,,,,,,,,,,,,,,,,,,,,,,,,,,,,,,471.69964599999366,471.75106450001476,472.7202369000006,472.7202369000006,472.76408290001564,475.70457890001126,3.011111111111111,3.9335205999959726,,,,,2j,001,2023-11-26_19h25.06.964,CLT,2023.2.3,60.00682877322635,2023-11-26 19h25.56.712735 +0530,
C:\Users\Vinisha\Desktop\Lab in psychology\final assigment\Set 2 (Mark)\Mark-N.jpg,n,,,,,,,,,0,28,28,3,475.73959240000113,,,,,,,,,,,,,,,,,,,,,,,,,,,,,,,,,,,,,,,,,,,,,,,,,,,,,,475.705500400014,475.73959240000113,476.7354752999963,476.7354752999963,476.7559360000014,481.5426493000123,4.972222222222221,5.775625099980971,,,,,2j,001,2023-11-26_19h25.06.964,CLT,2023.2.3,60.00682877322635,2023-11-26 19h25.56.712735 +0530,
C:\Users\Vinisha\Desktop\Lab in psychology\final assigment\Set 3 (Piet)\Piet-N.jpg,n,,,,,,,,,0,29,29,8,481.58991320000496,,,,,,,,,,,,,,,,,,,,,,,,,,,,,,,,,,,,,,,,,,,,,,,,,,,,,,481.5442060000205,481.58991320000496,482.56719269999303,482.56719269999303,482.61103950001416,485.9082989000017,3.9944444444444445,4.293737100000726,,,,,2j,001,2023-11-26_19h25.06.964,CLT,2023.2.3,60.00682877322635,2023-11-26 19h25.56.712735 +0530,
C:\Users\Vinisha\Desktop\Lab in psychology\final assigment\Set8(Gosh)\gosh-n.jpg,n,,,,,,,,,0,30,30,18,486.112431400019,,,,,,,,,,,,,,,,,,,,,,,,,,,,,,,,,,,,,,,,,,,,,,,,,,,,,,485.9098370000138,486.112431400019,486.92870940000284,486.92870940000284,487.1242367000086,489.3896454000205,2.9611111111111112,3.259853199997451,,,,,2j,001,2023-11-26_19h25.06.964,CLT,2023.2.3,60.00682877322635,2023-11-26 19h25.56.712735 +0530,
C:\Users\Vinisha\Desktop\Lab in psychology\final assigment\Set9(Gosh)\gosh-n.jpg,n,,,,,,,,,0,31,31,22,489.435108900012,,,,,,,,,,,,,,,,,,,,,,,,,,,,,,,,,,,,,,,,,,,,,,,,,,,,,,489.3905466000142,489.435108900012,490.4107406999974,490.4107406999974,490.4493636999978,494.80842929999926,2.9944444444444445,5.334267199999886,,,,,2j,001,2023-11-26_19h25.06.964,CLT,2023.2.3,60.00682877322635,2023-11-26 19h25.56.712735 +0530,
C:\Users\Vinisha\Desktop\Lab in psychology\final assigment\Set 5 (Clifford)\Clifford-R.jpg,r,,,,,,,,,0,32,32,12,494.98417640000116,,,,,,,,,,,,,,,,,,,,,,,,,,,,,,,,,,,,,,,,,,,,,,,,,,,,,,494.80968410000787,494.98417640000116,495.84893340000417,495.84893340000417,496.0072807999968,498.1805277999956,1,3.1715270999993663,,,,,2j,001,2023-11-26_19h25.06.964,CLT,2023.2.3,60.00682877322635,2023-11-26 19h25.56.712735 +0530,
,,,,,,,,,,,,,,,,,,,,,,,498.1810160000168,498.23047350000707,498.23047350000707,,,,,503.1927316999936,2.0027777777777778,4.967124999995576,,,,,,,,,,,,,,,,,,,,,,,,,,,,,,,,,,,,,,,,,,,,503.19277819999843,503.198902300006,507.20458799999324,507.1892497999943,,,,,,,,
