pics,type,trials.thisRepN,trials.thisTrialN,trials.thisN,trials.thisIndex,trials_2.thisRepN,trials_2.thisTrialN,trials_2.thisN,trials_2.thisIndex,trials_3.thisRepN,trials_3.thisTrialN,trials_3.thisN,trials_3.thisIndex,thisRow.t,notes,welcome.started,text.started,key_resp.started,welcome.stopped,key_resp.keys,key_resp.rt,key_resp.duration,questions.started,question1.started,slideranswer.started,questions.stopped,slideranswer.response,slideranswer.rt,textbox.text,instruction1.started,text_2.started,key_resp_2.started,instruction1.stopped,key_resp_2.keys,key_resp_2.rt,key_resp_2.duration,experiment1.started,fixation1.started,image.started,buttontomorrow_1.started,buttoninayear_1.started,fixation1.stopped,experiment1.stopped,buttontomorrow_1.numClicks,buttontomorrow_1.timesOn,buttontomorrow_1.timesOff,buttoninayear_1.numClicks,buttoninayear_1.timesOn,buttoninayear_1.timesOff,instruction2.started,instruction.started,instruction2.stopped,experiment2.started,fixation_1.started,image_2.started,slider.started,fixation_1.stopped,experiment2.stopped,slider.response,slider.rt,instructions3.started,instruction_2.started,instructions3.stopped,experiment3.started,fixation_3.started,image_3.started,slider_2.started,fixation_3.stopped,experiment3.stopped,slider_2.response,slider_2.rt,thankyou.started,ThankYou.started,thankyou.stopped,participant,session,date,expName,psychopyVersion,frameRate,expStart,
,,,,,,,,,,,,,,,,0.004072599986102432,0.01463829999556765,0.01463829999556765,4.246383999998216,space,4.225466899981257,None,,,,,,,,,,,,,,,,,,,,,,,,,,,,,,,,,,,,,,,,,,,,,,,,,,,,,3ra,001,2023-11-26_20h02.31.796,CLT,2023.2.3,59.988902048927415,2023-11-26 20h02.59.736758 +0530,
,,,,,,,,,,,,,,,,,,,,,,,4.24652749998495,4.410218899982283,4.410218899982283,11.115182499983348,1.0083333333333333,6.792214599990984,,11.115266899985727,11.124244000006001,11.124244000006001,18.076364899985492,space,6.949186300014844,None,,,,,,,,,,,,,,,,,,,,,,,,,,,,,,,,,,,,,,,3ra,001,2023-11-26_20h02.31.796,CLT,2023.2.3,59.988902048927415,2023-11-26 20h02.59.736758 +0530,
C:\Users\Vinisha\Desktop\Lab in psychology\final assigment\Set 2 (Mark)\Mark-I.jpg,i,0,0,0,4,,,,,,,,,18.151264499989338,,,,,,,,,,,,,,,,,,,,,,,18.11958619998768,18.151264499989338,19.137508099986007,19.137508099986007,19.137508099986007,19.15790989997913,23.32307869999204,1,[4.248566599999322],[4.248584300017683],0,,,,,,,,,,,,,,,,,,,,,,,,,,,,3ra,001,2023-11-26_20h02.31.796,CLT,2023.2.3,59.988902048927415,2023-11-26 20h02.59.736758 +0530,
C:\Users\Vinisha\Desktop\Lab in psychology\final assigment\Set11(Mich)\mich-r.jpg,r,0,1,1,29,,,,,,,,,23.398102899984224,,,,,,,,,,,,,,,,,,,,,,,23.33844570000656,23.398102899984224,24.35915129998466,24.35915129998466,24.35915129998466,24.404060600005323,26.140268099989044,1,[1.816855699988082],[1.816876400000183],0,,,,,,,,,,,,,,,,,,,,,,,,,,,,3ra,001,2023-11-26_20h02.31.796,CLT,2023.2.3,59.988902048927415,2023-11-26 20h02.59.736758 +0530,
C:\Users\Vinisha\Desktop\Lab in psychology\final assigment\Set 1 (Mark)\Mark-R.jpg,r,0,2,2,2,,,,,,,,,26.18879719998222,,,,,,,,,,,,,,,,,,,,,,,26.1426145999867,26.18879719998222,27.168296699994244,27.168296699994244,27.168296699994244,27.21327849998488,30.621892499999376,0,,,1,[3.483131199987838],[3.4831558000005316],,,,,,,,,,,,,,,,,,,,,,,,,,3ra,001,2023-11-26_20h02.31.796,CLT,2023.2.3,59.988902048927415,2023-11-26 20h02.59.736758 +0530,
C:\Users\Vinisha\Desktop\Lab in psychology\final assigment\Set8(Gosh)\gosh-i.jpg,i,0,3,3,20,,,,,,,,,31.06069579999894,,,,,,,,,,,,,,,,,,,,,,,30.624345699994592,31.06069579999894,31.657193999999436,31.657193999999436,31.657193999999436,32.08667049999349,34.448222399980295,0,,,1,[2.8275813999935053],[2.8276053000008687],,,,,,,,,,,,,,,,,,,,,,,,,,3ra,001,2023-11-26_20h02.31.796,CLT,2023.2.3,59.988902048927415,2023-11-26 20h02.59.736758 +0530,
C:\Users\Vinisha\Desktop\Lab in psychology\final assigment\Set9(Gosh)\gosh-n.jpg,n,0,4,4,22,,,,,,,,,34.63819739999599,,,,,,,,,,,,,,,,,,,,,,,34.450689699995564,34.63819739999599,35.46247619998758,35.46247619998758,35.46247619998758,35.65579029999208,37.29199460000382,0,,,1,[1.8547826999856625],[1.8548051999823656],,,,,,,,,,,,,,,,,,,,,,,,,,3ra,001,2023-11-26_20h02.31.796,CLT,2023.2.3,59.988902048927415,2023-11-26 20h02.59.736758 +0530,
C:\Users\Vinisha\Desktop\Lab in psychology\final assigment\Set 3 (Piet)\Piet-N.jpg,n,0,5,5,8,,,,,,,,,37.33141529999557,,,,,,,,,,,,,,,,,,,,,,,37.294384899985744,37.33141529999557,38.31054669999867,38.31054669999867,38.31054669999867,38.36080399999628,41.10073019997799,0,,,1,[2.815158000012161],[2.815178899996681],,,,,,,,,,,,,,,,,,,,,,,,,,3ra,001,2023-11-26_20h02.31.796,CLT,2023.2.3,59.988902048927415,2023-11-26 20h02.59.736758 +0530,
C:\Users\Vinisha\Desktop\Lab in psychology\final assigment\Set9(Gosh)\gosh-r.jpg,r,0,6,6,23,,,,,,,,,41.13066510000499,,,,,,,,,,,,,,,,,,,,,,,41.102817299979506,41.13066510000499,42.123588499991456,42.123588499991456,42.123588499991456,42.144386300002225,44.703353799995966,1,[2.602725200005807],[2.6027426999935415],0,,,,,,,,,,,,,,,,,,,,,,,,,,,,3ra,001,2023-11-26_20h02.31.796,CLT,2023.2.3,59.988902048927415,2023-11-26 20h02.59.736758 +0530,
C:\Users\Vinisha\Desktop\Lab in psychology\final assigment\Set9(Gosh)\gosh-i.jpg,i,0,7,7,21,,,,,,,,,44.71599949998199,,,,,,,,,,,,,,,,,,,,,,,44.70470959998784,44.71599949998199,45.72591769997962,45.72591769997962,45.72591769997962,45.74760740000056,48.47226939999382,1,[2.772389599995222],[2.7724123999942094],0,,,,,,,,,,,,,,,,,,,,,,,,,,,,3ra,001,2023-11-26_20h02.31.796,CLT,2023.2.3,59.988902048927415,2023-11-26 20h02.59.736758 +0530,
C:\Users\Vinisha\Desktop\Lab in psychology\final assigment\Set 5 (Clifford)\Clifford-I.jpg,i,0,8,8,14,,,,,,,,,48.61789910000516,,,,,,,,,,,,,,,,,,,,,,,48.47467759999563,48.61789910000516,49.49103020000621,49.49103020000621,49.49103020000621,49.63206989999162,52.999511100002564,1,[3.5337753999920096],[3.5337963000056334],0,,,,,,,,,,,,,,,,,,,,,,,,,,,,3ra,001,2023-11-26_20h02.31.796,CLT,2023.2.3,59.988902048927415,2023-11-26 20h02.59.736758 +0530,
C:\Users\Vinisha\Desktop\Lab in psychology\final assigment\Set8(Gosh)\gosh-n.jpg,n,0,9,9,18,,,,,,,,,53.144615600002,,,,,,,,,,,,,,,,,,,,,,,53.001823800004786,53.144615600002,54.02561579999747,54.02561579999747,54.02561579999747,54.16992479999317,55.8024489999807,0,,,1,[1.8049454000138212],[1.8049736999964807],,,,,,,,,,,,,,,,,,,,,,,,,,3ra,001,2023-11-26_20h02.31.796,CLT,2023.2.3,59.988902048927415,2023-11-26 20h02.59.736758 +0530,
C:\Users\Vinisha\Desktop\Lab in psychology\final assigment\Set 3 (Piet)\Piet-I.jpg,i,0,10,10,7,,,,,,,,,55.850672999979,,,,,,,,,,,,,,,,,,,,,,,55.805189099977724,55.850672999979,56.83185359998606,56.83185359998606,56.83185359998606,56.893196699995315,58.96675140000298,1,[2.170017700002063],[2.1700391999911517],0,,,,,,,,,,,,,,,,,,,,,,,,,,,,3ra,001,2023-11-26_20h02.31.796,CLT,2023.2.3,59.988902048927415,2023-11-26 20h02.59.736758 +0530,
C:\Users\Vinisha\Desktop\Lab in psychology\final assigment\Set11(Mich)\mich-n.jpg,n,0,11,11,28,,,,,,,,,59.102646699990146,,,,,,,,,,,,,,,,,,,,,,,58.969042499986244,59.102646699990146,59.990789999981644,59.990789999981644,59.990789999981644,60.11173669999698,62.382374999986496,1,[2.4199039000086486],[2.419933500001207],0,,,,,,,,,,,,,,,,,,,,,,,,,,,,3ra,001,2023-11-26_20h02.31.796,CLT,2023.2.3,59.988902048927415,2023-11-26 20h02.59.736758 +0530,
C:\Users\Vinisha\Desktop\Lab in psychology\final assigment\Set 5 (Clifford)\Clifford-R.jpg,r,0,12,12,12,,,,,,,,,62.58993550000014,,,,,,,,,,,,,,,,,,,,,,,62.38483249998535,62.58993550000014,63.40429310000036,63.40429310000036,63.40429310000036,63.60816849998082,64.99396219998016,1,[1.6157333000155631],[1.6157583000021987],0,,,,,,,,,,,,,,,,,,,,,,,,,,,,3ra,001,2023-11-26_20h02.31.796,CLT,2023.2.3,59.988902048927415,2023-11-26 20h02.59.736758 +0530,
C:\Users\Vinisha\Desktop\Lab in psychology\final assigment\Set 6 (Clifford)\Clifford-R.jpg,r,0,13,13,17,,,,,,,,,65.02394789998652,,,,,,,,,,,,,,,,,,,,,,,64.99646279998706,65.02394789998652,66.03500559998793,66.03500559998793,66.03500559998793,66.07172909998917,68.91328819998307,1,[2.9194324999989476],[2.919453499984229],0,,,,,,,,,,,,,,,,,,,,,,,,,,,,3ra,001,2023-11-26_20h02.31.796,CLT,2023.2.3,59.988902048927415,2023-11-26 20h02.59.736758 +0530,
C:\Users\Vinisha\Desktop\Lab in psychology\final assigment\Set12(salvador)\salvador-n.jpg,n,0,14,14,31,,,,,,,,,68.94254200000432,,,,,,,,,,,,,,,,,,,,,,,68.91561319999164,68.94254200000432,69.93379919999279,69.93379919999279,69.93379919999279,69.96343579998938,72.86862090000068,1,[2.959715100005269],[2.959734300005948],0,,,,,,,,,,,,,,,,,,,,,,,,,,,,3ra,001,2023-11-26_20h02.31.796,CLT,2023.2.3,59.988902048927415,2023-11-26 20h02.59.736758 +0530,
C:\Users\Vinisha\Desktop\Lab in psychology\final assigment\Set 4 (Piet)\Piet-R.jpg,r,0,15,15,10,,,,,,,,,72.91496729999199,,,,,,,,,,,,,,,,,,,,,,,72.87085619999561,72.91496729999199,73.88144830000238,73.88144830000238,73.88144830000238,73.92580880000605,76.02833619999001,0,,,1,[2.1705389999842737],[2.1705912000034004],,,,,,,,,,,,,,,,,,,,,,,,,,3ra,001,2023-11-26_20h02.31.796,CLT,2023.2.3,59.988902048927415,2023-11-26 20h02.59.736758 +0530,
C:\Users\Vinisha\Desktop\Lab in psychology\final assigment\Set10(picasso)\picasso-n.jpg,n,0,16,16,25,,,,,,,,,76.07817019999493,,,,,,,,,,,,,,,,,,,,,,,76.03157170000486,76.07817019999493,77.04918040000484,77.04918040000484,77.04918040000484,77.11175529999309,80.57030479999958,0,,,1,[3.5469439000007696],[3.546971100004157],,,,,,,,,,,,,,,,,,,,,,,,,,3ra,001,2023-11-26_20h02.31.796,CLT,2023.2.3,59.988902048927415,2023-11-26 20h02.59.736758 +0530,
C:\Users\Vinisha\Desktop\Lab in psychology\final assigment\Set 2 (Mark)\Mark-R.jpg,r,0,17,17,5,,,,,,,,,80.63640019999002,,,,,,,,,,,,,,,,,,,,,,,80.5737294999999,80.63640019999002,81.5977423999866,81.5977423999866,81.5977423999866,81.64379780000309,83.28778809998767,1,[1.7154598999768496],[1.7154812999942806],0,,,,,,,,,,,,,,,,,,,,,,,,,,,,3ra,001,2023-11-26_20h02.31.796,CLT,2023.2.3,59.988902048927415,2023-11-26 20h02.59.736758 +0530,
C:\Users\Vinisha\Desktop\Lab in psychology\final assigment\Set 4 (Piet)\Piet-I.jpg,i,0,18,18,11,,,,,,,,,83.34050629998092,,,,,,,,,,,,,,,,,,,,,,,83.29011839997838,83.34050629998092,84.31134210000164,84.31134210000164,84.31134210000164,84.35605279999436,85.50376530000358,1,[1.2154742000275292],[1.215496200020425],0,,,,,,,,,,,,,,,,,,,,,,,,,,,,3ra,001,2023-11-26_20h02.31.796,CLT,2023.2.3,59.988902048927415,2023-11-26 20h02.59.736758 +0530,
C:\Users\Vinisha\Desktop\Lab in psychology\final assigment\Set 1 (Mark)\Mark-N.jpg,n,0,19,19,1,,,,,,,,,85.54957909998484,,,,,,,,,,,,,,,,,,,,,,,85.50743259998853,85.54957909998484,86.53944739999133,86.53944739999133,86.53944739999133,86.57060419998015,88.06466469998122,0,,,1,[1.5608379000041168],[1.5608612000069115],,,,,,,,,,,,,,,,,,,,,,,,,,3ra,001,2023-11-26_20h02.31.796,CLT,2023.2.3,59.988902048927415,2023-11-26 20h02.59.736758 +0530,
C:\Users\Vinisha\Desktop\Lab in psychology\final assigment\Set 2 (Mark)\Mark-N.jpg,n,0,20,20,3,,,,,,,,,88.10234739998123,,,,,,,,,,,,,,,,,,,,,,,88.06708749997779,88.10234739998123,89.07630570000038,89.07630570000038,89.07630570000038,89.1202176999941,90.26952849997906,0,,,1,[1.2166746000002604],[1.2166975000000093],,,,,,,,,,,,,,,,,,,,,,,,,,3ra,001,2023-11-26_20h02.31.796,CLT,2023.2.3,59.988902048927415,2023-11-26 20h02.59.736758 +0530,
C:\Users\Vinisha\Desktop\Lab in psychology\final assigment\Set 5 (Clifford)\Clifford-N.jpg,n,0,21,21,13,,,,,,,,,90.46148139997968,,,,,,,,,,,,,,,,,,,,,,,90.27191449998645,90.46148139997968,91.29414689997793,91.29414689997793,91.29414689997793,91.469981799979,92.41289499998675,0,,,1,[1.1439264999935403],[1.1439538999984507],,,,,,,,,,,,,,,,,,,,,,,,,,3ra,001,2023-11-26_20h02.31.796,CLT,2023.2.3,59.988902048927415,2023-11-26 20h02.59.736758 +0530,
C:\Users\Vinisha\Desktop\Lab in psychology\final assigment\Set11(Mich)\mich-i.jpg,i,0,22,22,27,,,,,,,,,92.5527882000024,,,,,,,,,,,,,,,,,,,,,,,92.41597020000336,92.5527882000024,93.4285433999903,93.4285433999903,93.4285433999903,93.5700045999838,95.85187929999665,1,[2.44895349998842],[2.4489783000026364],0,,,,,,,,,,,,,,,,,,,,,,,,,,,,3ra,001,2023-11-26_20h02.31.796,CLT,2023.2.3,59.988902048927415,2023-11-26 20h02.59.736758 +0530,
C:\Users\Vinisha\Desktop\Lab in psychology\final assigment\Set8(Gosh)\gosh-r.jpg,r,0,23,23,19,,,,,,,,,97.23832149998634,,,,,,,,,,,,,,,,,,,,,,,95.85465209998074,97.23832149998634,97.23832149998634,97.23832149998634,97.23832149998634,,97.44668419999653,1,[0.26465290001942776],[0.2646744000085164],0,,,,,,,,,,,,,,,,,,,,,,,,,,,,3ra,001,2023-11-26_20h02.31.796,CLT,2023.2.3,59.988902048927415,2023-11-26 20h02.59.736758 +0530,
C:\Users\Vinisha\Desktop\Lab in psychology\final assigment\Set 1 (Mark)\Mark-I.jpg,i,0,24,24,0,,,,,,,,,97.49660569999833,,,,,,,,,,,,,,,,,,,,,,,97.44906449998962,97.49660569999833,98.46490950000589,98.46490950000589,98.46490950000589,98.49806610000087,101.53607780000311,0,,,1,[3.087022399995476],[3.08704910002416],,,,,,,,,,,,,,,,,,,,,,,,,,3ra,001,2023-11-26_20h02.31.796,CLT,2023.2.3,59.988902048927415,2023-11-26 20h02.59.736758 +0530,
C:\Users\Vinisha\Desktop\Lab in psychology\final assigment\Set 6 (Clifford)\Clifford-N1.jpg,n,0,25,25,16,,,,,,,,,101.60830059999716,,,,,,,,,,,,,,,,,,,,,,,101.53875619999599,101.60830059999716,102.55761429999257,102.55761429999257,102.55761429999257,102.63531069998862,103.60070640000049,0,,,1,[1.0685731999983545],[1.0685996999964118],,,,,,,,,,,,,,,,,,,,,,,,,,3ra,001,2023-11-26_20h02.31.796,CLT,2023.2.3,59.988902048927415,2023-11-26 20h02.59.736758 +0530,
C:\Users\Vinisha\Desktop\Lab in psychology\final assigment\Set10(picasso)\picasso-i.jpg,i,0,26,26,24,,,,,,,,,103.68713740000385,,,,,,,,,,,,,,,,,,,,,,,103.60342420000234,103.68713740000385,104.61333619998186,104.61333619998186,104.61333619998186,104.70607749998453,107.28474269999424,0,,,1,[2.6873242000001483],[2.6873476000037044],,,,,,,,,,,,,,,,,,,,,,,,,,3ra,001,2023-11-26_20h02.31.796,CLT,2023.2.3,59.988902048927415,2023-11-26 20h02.59.736758 +0530,
C:\Users\Vinisha\Desktop\Lab in psychology\final assigment\Set 6 (Clifford)\Clifford-I1.jpg,i,0,27,27,15,,,,,,,,,107.32334959998843,,,,,,,,,,,,,,,,,,,,,,,107.2869764000061,107.32334959998843,108.30557060000137,108.30557060000137,108.30557060000137,108.3526431999926,110.8335804999806,1,[2.552925800002413],[2.552952700003516],0,,,,,,,,,,,,,,,,,,,,,,,,,,,,3ra,001,2023-11-26_20h02.31.796,CLT,2023.2.3,59.988902048927415,2023-11-26 20h02.59.736758 +0530,
C:\Users\Vinisha\Desktop\Lab in psychology\final assigment\Set12(salvador)\salvador-r.jpg,r,0,28,28,32,,,,,,,,,110.90904539998155,,,,,,,,,,,,,,,,,,,,,,,110.8359644000011,110.90904539998155,111.85487179999473,111.85487179999473,111.85487179999473,111.93059809997794,112.8707894999825,1,[1.0412978999956977],[1.0413227000099141],0,,,,,,,,,,,,,,,,,,,,,,,,,,,,3ra,001,2023-11-26_20h02.31.796,CLT,2023.2.3,59.988902048927415,2023-11-26 20h02.59.736758 +0530,
C:\Users\Vinisha\Desktop\Lab in psychology\final assigment\Set10(picasso)\picasso-r.jpg,r,0,29,29,26,,,,,,,,,112.94660579998163,,,,,,,,,,,,,,,,,,,,,,,112.87313150000409,112.94660579998163,113.88670420000562,113.88670420000562,113.88670420000562,113.96357389999321,115.0737092999916,1,[1.210984900011681],[1.211010900005931],0,,,,,,,,,,,,,,,,,,,,,,,,,,,,3ra,001,2023-11-26_20h02.31.796,CLT,2023.2.3,59.988902048927415,2023-11-26 20h02.59.736758 +0530,
C:\Users\Vinisha\Desktop\Lab in psychology\final assigment\Set 3 (Piet)\Piet-R.jpg,r,0,30,30,6,,,,,,,,,115.12116589999641,,,,,,,,,,,,,,,,,,,,,,,115.07704319999903,115.12116589999641,116.10443929999019,116.10443929999019,116.10443929999019,116.13235959998565,118.48571509998874,0,,,1,[2.407618800003547],[2.4076422000071034],,,,,,,,,,,,,,,,,,,,,,,,,,3ra,001,2023-11-26_20h02.31.796,CLT,2023.2.3,59.988902048927415,2023-11-26 20h02.59.736758 +0530,
C:\Users\Vinisha\Desktop\Lab in psychology\final assigment\Set 4 (Piet)\Piet-N.jpg,n,0,31,31,9,,,,,,,,,118.52025219998905,,,,,,,,,,,,,,,,,,,,,,,118.48794059999636,118.52025219998905,119.50286219999543,119.50286219999543,119.50286219999543,119.52515949998633,122.4670335999981,0,,,1,[2.9901881999976467],[2.9902210000145715],,,,,,,,,,,,,,,,,,,,,,,,,,3ra,001,2023-11-26_20h02.31.796,CLT,2023.2.3,59.988902048927415,2023-11-26 20h02.59.736758 +0530,
C:\Users\Vinisha\Desktop\Lab in psychology\final assigment\Set12(salvador)\salvador-i.jpg,i,0,32,32,30,,,,,,,,,122.68239069997799,,,,,,,,,,,,,,,,,,,,,,,122.47027180000441,122.68239069997799,123.48532680000062,123.48532680000062,123.48532680000062,123.69927759998245,125.96382649999578,0,,,1,[2.505014800000936],[2.5050438000180293],,,,,,,,,,,,,,,,,,,,,,,,,,3ra,001,2023-11-26_20h02.31.796,CLT,2023.2.3,59.988902048927415,2023-11-26 20h02.59.736758 +0530,
C:\Users\Vinisha\Desktop\Lab in psychology\final assigment\Set9(Gosh)\gosh-r.jpg,r,,,,,0,0,0,23,,,,,132.04257130000042,,,,,,,,,,,,,,,,,,,,,,,,,,,,,,,,,,,,125.96568890000344,125.9768458000035,131.97091030000593,132.00283290000516,132.04257130000042,133.01563569999416,133.01563569999416,133.07154449998052,136.53309539999464,6.138888888888888,4.474645400012378,,,,,,,,,,,,,,,3ra,001,2023-11-26_20h02.31.796,CLT,2023.2.3,59.988902048927415,2023-11-26 20h02.59.736758 +0530,
C:\Users\Vinisha\Desktop\Lab in psychology\final assigment\Set12(salvador)\salvador-i.jpg,i,,,,,0,1,1,30,,,,,136.77681469998788,,,,,,,,,,,,,,,,,,,,,,,,,,,,,,,,,,,,,,,136.5343198000046,136.77681469998788,137.55725039998651,137.55725039998651,137.78288789998624,141.63617889999296,4.966666666666667,4.837853600009112,,,,,,,,,,,,,,,3ra,001,2023-11-26_20h02.31.796,CLT,2023.2.3,59.988902048927415,2023-11-26 20h02.59.736758 +0530,
C:\Users\Vinisha\Desktop\Lab in psychology\final assigment\Set11(Mich)\mich-i.jpg,i,,,,,0,2,2,27,,,,,141.7735257000022,,,,,,,,,,,,,,,,,,,,,,,,,,,,,,,,,,,,,,,141.63711729997885,141.7735257000022,142.6773387999856,142.6773387999856,142.7933092000021,147.0204986000026,2.0666666666666664,5.230538399977377,,,,,,,,,,,,,,,3ra,001,2023-11-26_20h02.31.796,CLT,2023.2.3,59.988902048927415,2023-11-26 20h02.59.736758 +0530,
C:\Users\Vinisha\Desktop\Lab in psychology\final assigment\Set 5 (Clifford)\Clifford-I.jpg,i,,,,,0,3,3,14,,,,,147.12601429998176,,,,,,,,,,,,,,,,,,,,,,,,,,,,,,,,,,,,,,,147.02125920000253,147.12601429998176,148.0507013000024,148.0507013000024,148.12862919998588,151.0061840999988,6.8,3.8503018000046723,,,,,,,,,,,,,,,3ra,001,2023-11-26_20h02.31.796,CLT,2023.2.3,59.988902048927415,2023-11-26 20h02.59.736758 +0530,
C:\Users\Vinisha\Desktop\Lab in psychology\final assigment\Set 1 (Mark)\Mark-I.jpg,i,,,,,0,4,4,0,,,,,151.06782349999412,,,,,,,,,,,,,,,,,,,,,,,,,,,,,,,,,,,,,,,151.00728900000104,151.06782349999412,152.0389307999867,152.0389307999867,152.08312029999797,155.71626839999226,4.0,4.625469699996756,,,,,,,,,,,,,,,3ra,001,2023-11-26_20h02.31.796,CLT,2023.2.3,59.988902048927415,2023-11-26 20h02.59.736758 +0530,
C:\Users\Vinisha\Desktop\Lab in psychology\final assigment\Set9(Gosh)\gosh-i.jpg,i,,,,,0,5,5,21,,,,,155.75402309998753,,,,,,,,,,,,,,,,,,,,,,,,,,,,,,,,,,,,,,,155.71728660000372,155.75402309998753,156.75006219997886,156.75006219997886,156.77002399999765,159.64482990000397,1,3.8721897000214085,,,,,,,,,,,,,,,3ra,001,2023-11-26_20h02.31.796,CLT,2023.2.3,59.988902048927415,2023-11-26 20h02.59.736758 +0530,
C:\Users\Vinisha\Desktop\Lab in psychology\final assigment\Set8(Gosh)\gosh-i.jpg,i,,,,,0,6,6,20,,,,,159.88708469999256,,,,,,,,,,,,,,,,,,,,,,,,,,,,,,,,,,,,,,,159.6457477999793,159.88708469999256,160.67468699999154,160.67468699999154,160.89032730000326,162.83168400000432,2.0277777777777777,2.9161904999928083,,,,,,,,,,,,,,,3ra,001,2023-11-26_20h02.31.796,CLT,2023.2.3,59.988902048927415,2023-11-26 20h02.59.736758 +0530,
C:\Users\Vinisha\Desktop\Lab in psychology\final assigment\Set 3 (Piet)\Piet-I.jpg,i,,,,,0,7,7,7,,,,,162.8691933999944,,,,,,,,,,,,,,,,,,,,,,,,,,,,,,,,,,,,,,,162.83289580000564,162.8691933999944,163.86652779998258,163.86652779998258,163.88736949997838,165.89096439999412,6.233333333333333,2.990831499977503,,,,,,,,,,,,,,,3ra,001,2023-11-26_20h02.31.796,CLT,2023.2.3,59.988902048927415,2023-11-26 20h02.59.736758 +0530,
C:\Users\Vinisha\Desktop\Lab in psychology\final assigment\Set 2 (Mark)\Mark-N.jpg,n,,,,,0,8,8,3,,,,,165.94133889998193,,,,,,,,,,,,,,,,,,,,,,,,,,,,,,,,,,,,,,,165.89236769999843,165.94133889998193,166.91781029998674,166.91781029998674,166.96903350000503,169.11606129998108,1.0777777777777777,3.1538298999948893,,,,,,,,,,,,,,,3ra,001,2023-11-26_20h02.31.796,CLT,2023.2.3,59.988902048927415,2023-11-26 20h02.59.736758 +0530,
C:\Users\Vinisha\Desktop\Lab in psychology\final assigment\Set8(Gosh)\gosh-r.jpg,r,,,,,0,9,9,19,,,,,169.8626690999954,,,,,,,,,,,,,,,,,,,,,,,,,,,,,,,,,,,,,,,169.11707269999897,169.8626690999954,170.1778295999975,170.1778295999975,170.89914699998917,172.45535039997776,6.655555555555556,2.5659476000000723,,,,,,,,,,,,,,,3ra,001,2023-11-26_20h02.31.796,CLT,2023.2.3,59.988902048927415,2023-11-26 20h02.59.736758 +0530,
C:\Users\Vinisha\Desktop\Lab in psychology\final assigment\Set 1 (Mark)\Mark-R.jpg,r,,,,,0,10,10,2,,,,,172.49933699998655,,,,,,,,,,,,,,,,,,,,,,,,,,,,,,,,,,,,,,,172.4564462999988,172.49933699998655,173.47694890000275,173.47694890000275,173.51839759998256,175.58819959999528,6.21111111111111,3.0797123000083957,,,,,,,,,,,,,,,3ra,001,2023-11-26_20h02.31.796,CLT,2023.2.3,59.988902048927415,2023-11-26 20h02.59.736758 +0530,
C:\Users\Vinisha\Desktop\Lab in psychology\final assigment\Set 3 (Piet)\Piet-R.jpg,r,,,,,0,11,11,6,,,,,175.61749400000554,,,,,,,,,,,,,,,,,,,,,,,,,,,,,,,,,,,,,,,175.58908899998642,175.61749400000554,176.60995549999643,176.60995549999643,176.6303440000047,180.07740219999687,3.8888888888888893,4.443887500005076,,,,,,,,,,,,,,,3ra,001,2023-11-26_20h02.31.796,CLT,2023.2.3,59.988902048927415,2023-11-26 20h02.59.736758 +0530,
C:\Users\Vinisha\Desktop\Lab in psychology\final assigment\Set10(picasso)\picasso-r.jpg,r,,,,,0,12,12,26,,,,,180.1312554999895,,,,,,,,,,,,,,,,,,,,,,,,,,,,,,,,,,,,,,,180.07814499997767,180.1312554999895,181.11134989999118,181.11134989999118,181.1606242999842,183.23307019998902,6.966666666666667,3.0712455000029877,,,,,,,,,,,,,,,3ra,001,2023-11-26_20h02.31.796,CLT,2023.2.3,59.988902048927415,2023-11-26 20h02.59.736758 +0530,
C:\Users\Vinisha\Desktop\Lab in psychology\final assigment\Set11(Mich)\mich-r.jpg,r,,,,,0,13,13,29,,,,,183.3202040999895,,,,,,,,,,,,,,,,,,,,,,,,,,,,,,,,,,,,,,,183.23431299999356,183.3202040999895,184.26024429997778,184.26024429997778,184.32908259998658,185.8242065999948,6.966666666666667,2.4823468000104185,,,,,,,,,,,,,,,3ra,001,2023-11-26_20h02.31.796,CLT,2023.2.3,59.988902048927415,2023-11-26 20h02.59.736758 +0530,
C:\Users\Vinisha\Desktop\Lab in psychology\final assigment\Set9(Gosh)\gosh-n.jpg,n,,,,,0,14,14,22,,,,,185.87881589998142,,,,,,,,,,,,,,,,,,,,,,,,,,,,,,,,,,,,,,,185.82523639997817,185.87881589998142,186.85768590000225,186.85768590000225,186.8989282999828,189.2034219999914,2.877777777777778,3.300033000006806,,,,,,,,,,,,,,,3ra,001,2023-11-26_20h02.31.796,CLT,2023.2.3,59.988902048927415,2023-11-26 20h02.59.736758 +0530,
C:\Users\Vinisha\Desktop\Lab in psychology\final assigment\Set 6 (Clifford)\Clifford-R.jpg,r,,,,,0,15,15,17,,,,,189.24385299999267,,,,,,,,,,,,,,,,,,,,,,,,,,,,,,,,,,,,,,,189.20453960000305,189.24385299999267,190.2397290999943,190.2397290999943,190.26718289998826,192.37900699998136,5.966666666666667,3.111527200002456,,,,,,,,,,,,,,,3ra,001,2023-11-26_20h02.31.796,CLT,2023.2.3,59.988902048927415,2023-11-26 20h02.59.736758 +0530,
C:\Users\Vinisha\Desktop\Lab in psychology\final assigment\Set 1 (Mark)\Mark-N.jpg,n,,,,,0,16,16,1,,,,,192.41718590000528,,,,,,,,,,,,,,,,,,,,,,,,,,,,,,,,,,,,,,,192.38009979997878,192.41718590000528,193.4077008999884,193.4077008999884,193.42867219998152,195.4632023999875,1,3.0096600000106264,,,,,,,,,,,,,,,3ra,001,2023-11-26_20h02.31.796,CLT,2023.2.3,59.988902048927415,2023-11-26 20h02.59.736758 +0530,
C:\Users\Vinisha\Desktop\Lab in psychology\final assigment\Set10(picasso)\picasso-n.jpg,n,,,,,0,17,17,25,,,,,195.53131769999163,,,,,,,,,,,,,,,,,,,,,,,,,,,,,,,,,,,,,,,195.46564899999066,195.53131769999163,196.4986016000039,196.4986016000039,196.54274360000272,199.1794804999954,1.0611111111111111,3.621099999989383,,,,,,,,,,,,,,,3ra,001,2023-11-26_20h02.31.796,CLT,2023.2.3,59.988902048927415,2023-11-26 20h02.59.736758 +0530,
C:\Users\Vinisha\Desktop\Lab in psychology\final assigment\Set11(Mich)\mich-n.jpg,n,,,,,0,18,18,28,,,,,199.3120340000023,,,,,,,,,,,,,,,,,,,,,,,,,,,,,,,,,,,,,,,199.18133199997828,199.3120340000023,200.21329339998192,200.21329339998192,200.32521099998849,202.2356174000015,5.961111111111111,2.891652999998769,,,,,,,,,,,,,,,3ra,001,2023-11-26_20h02.31.796,CLT,2023.2.3,59.988902048927415,2023-11-26 20h02.59.736758 +0530,
C:\Users\Vinisha\Desktop\Lab in psychology\final assigment\Set 5 (Clifford)\Clifford-N.jpg,n,,,,,0,19,19,13,,,,,202.32969169999706,,,,,,,,,,,,,,,,,,,,,,,,,,,,,,,,,,,,,,,202.2370465999993,202.32969169999706,203.27354619998368,203.27354619998368,203.3534568999894,205.43019729998196,1.0222222222222221,3.0843113000155427,,,,,,,,,,,,,,,3ra,001,2023-11-26_20h02.31.796,CLT,2023.2.3,59.988902048927415,2023-11-26 20h02.59.736758 +0530,
C:\Users\Vinisha\Desktop\Lab in psychology\final assigment\Set 2 (Mark)\Mark-I.jpg,i,,,,,0,20,20,4,,,,,205.4638253999874,,,,,,,,,,,,,,,,,,,,,,,,,,,,,,,,,,,,,,,205.43094289998407,205.4638253999874,206.45331319997786,206.45331319997786,206.47465639997972,210.04064120000112,7.0,4.555135900009191,,,,,,,,,,,,,,,3ra,001,2023-11-26_20h02.31.796,CLT,2023.2.3,59.988902048927415,2023-11-26 20h02.59.736758 +0530,
C:\Users\Vinisha\Desktop\Lab in psychology\final assigment\Set12(salvador)\salvador-n.jpg,n,,,,,0,21,21,31,,,,,210.068497500004,,,,,,,,,,,,,,,,,,,,,,,,,,,,,,,,,,,,,,,210.04187439999077,210.068497500004,211.07181459999993,211.07181459999993,211.10074329999043,212.63634029999957,7.0,2.5340311999898404,,,,,,,,,,,,,,,3ra,001,2023-11-26_20h02.31.796,CLT,2023.2.3,59.988902048927415,2023-11-26 20h02.59.736758 +0530,
C:\Users\Vinisha\Desktop\Lab in psychology\final assigment\Set 4 (Piet)\Piet-N.jpg,n,,,,,0,22,22,9,,,,,212.68833939998876,,,,,,,,,,,,,,,,,,,,,,,,,,,,,,,,,,,,,,,212.63762520000455,212.68833939998876,213.66492469998775,213.66492469998775,213.70843219998642,217.18674239999382,1,4.484032300009858,,,,,,,,,,,,,,,3ra,001,2023-11-26_20h02.31.796,CLT,2023.2.3,59.988902048927415,2023-11-26 20h02.59.736758 +0530,
C:\Users\Vinisha\Desktop\Lab in psychology\final assigment\Set 3 (Piet)\Piet-N.jpg,n,,,,,0,23,23,8,,,,,217.2164530000009,,,,,,,,,,,,,,,,,,,,,,,,,,,,,,,,,,,,,,,217.18745609998587,217.2164530000009,218.21306089998689,218.21306089998689,218.23310270000366,220.3444443999906,6.788888888888889,3.1026205999951344,,,,,,,,,,,,,,,3ra,001,2023-11-26_20h02.31.796,CLT,2023.2.3,59.988902048927415,2023-11-26 20h02.59.736758 +0530,
C:\Users\Vinisha\Desktop\Lab in psychology\final assigment\Set 6 (Clifford)\Clifford-N1.jpg,n,,,,,0,24,24,16,,,,,220.4053289000003,,,,,,,,,,,,,,,,,,,,,,,,,,,,,,,,,,,,,,,220.34547070000554,220.4053289000003,221.38821179998922,221.38821179998922,221.41653889999725,223.6398319999862,1,3.213432099990314,,,,,,,,,,,,,,,3ra,001,2023-11-26_20h02.31.796,CLT,2023.2.3,59.988902048927415,2023-11-26 20h02.59.736758 +0530,
C:\Users\Vinisha\Desktop\Lab in psychology\final assigment\Set10(picasso)\picasso-i.jpg,i,,,,,0,25,25,24,,,,,223.71806469999137,,,,,,,,,,,,,,,,,,,,,,,,,,,,,,,,,,,,,,,223.6408878999937,223.71806469999137,224.67251619999297,224.67251619999297,224.7471353999863,227.10443469998427,7,3.3570707000035327,,,,,,,,,,,,,,,3ra,001,2023-11-26_20h02.31.796,CLT,2023.2.3,59.988902048927415,2023-11-26 20h02.59.736758 +0530,
C:\Users\Vinisha\Desktop\Lab in psychology\final assigment\Set 2 (Mark)\Mark-R.jpg,r,,,,,0,26,26,5,,,,,227.16752459999407,,,,,,,,,,,,,,,,,,,,,,,,,,,,,,,,,,,,,,,227.1062138999987,227.16752459999407,228.13364139999612,228.13364139999612,228.18753789999755,232.834248500003,7,5.644553599995561,,,,,,,,,,,,,,,3ra,001,2023-11-26_20h02.31.796,CLT,2023.2.3,59.988902048927415,2023-11-26 20h02.59.736758 +0530,
C:\Users\Vinisha\Desktop\Lab in psychology\final assigment\Set 4 (Piet)\Piet-R.jpg,r,,,,,0,27,27,10,,,,,232.87696729999152,,,,,,,,,,,,,,,,,,,,,,,,,,,,,,,,,,,,,,,232.83522229999653,232.87696729999152,233.8623718000017,233.8623718000017,233.88765389999026,236.48616679999395,6.888888888888888,3.5640353999915533,,,,,,,,,,,,,,,3ra,001,2023-11-26_20h02.31.796,CLT,2023.2.3,59.988902048927415,2023-11-26 20h02.59.736758 +0530,
C:\Users\Vinisha\Desktop\Lab in psychology\final assigment\Set 5 (Clifford)\Clifford-R.jpg,r,,,,,0,28,28,12,,,,,236.69947819999652,,,,,,,,,,,,,,,,,,,,,,,,,,,,,,,,,,,,,,,236.48744369999622,236.69947819999652,237.51172619999852,237.51172619999852,237.7106014000019,238.61312409999664,6.888888888888888,1.8953370000235736,,,,,,,,,,,,,,,3ra,001,2023-11-26_20h02.31.796,CLT,2023.2.3,59.988902048927415,2023-11-26 20h02.59.736758 +0530,
C:\Users\Vinisha\Desktop\Lab in psychology\final assigment\Set 6 (Clifford)\Clifford-I1.jpg,i,,,,,0,29,29,15,,,,,238.66059210000094,,,,,,,,,,,,,,,,,,,,,,,,,,,,,,,,,,,,,,,238.6143228999863,238.66059210000094,239.64337409997825,239.64337409997825,239.66428999998607,241.00595349998912,6.888888888888888,2.31714609998744,,,,,,,,,,,,,,,3ra,001,2023-11-26_20h02.31.796,CLT,2023.2.3,59.988902048927415,2023-11-26 20h02.59.736758 +0530,
C:\Users\Vinisha\Desktop\Lab in psychology\final assigment\Set12(salvador)\salvador-r.jpg,r,,,,,0,30,30,32,,,,,241.08640879997984,,,,,,,,,,,,,,,,,,,,,,,,,,,,,,,,,,,,,,,241.00710429999162,241.08640879997984,242.0397100999835,242.0397100999835,242.10563089998323,245.3360272999853,7,4.225776199979009,,,,,,,,,,,,,,,3ra,001,2023-11-26_20h02.31.796,CLT,2023.2.3,59.988902048927415,2023-11-26 20h02.59.736758 +0530,
C:\Users\Vinisha\Desktop\Lab in psychology\final assigment\Set 4 (Piet)\Piet-I.jpg,i,,,,,0,31,31,11,,,,,245.38619130000006,,,,,,,,,,,,,,,,,,,,,,,,,,,,,,,,,,,,,,,245.33696039998904,245.38619130000006,246.36543049998,246.36543049998,246.40523149998626,248.45999819997814,1.088888888888889,3.0521693999762647,,,,,,,,,,,,,,,3ra,001,2023-11-26_20h02.31.796,CLT,2023.2.3,59.988902048927415,2023-11-26 20h02.59.736758 +0530,
C:\Users\Vinisha\Desktop\Lab in psychology\final assigment\Set8(Gosh)\gosh-n.jpg,n,,,,,0,32,32,18,,,,,248.6225415999943,,,,,,,,,,,,,,,,,,,,,,,,,,,,,,,,,,,,,,,248.4610122999875,248.6225415999943,249.48828789999243,249.48828789999243,249.62528079998447,253.8305999999866,6.927777777777777,5.191720600007102,,,,,,,,,,,,,,,3ra,001,2023-11-26_20h02.31.796,CLT,2023.2.3,59.988902048927415,2023-11-26 20h02.59.736758 +0530,
C:\Users\Vinisha\Desktop\Lab in psychology\final assigment\Set11(Mich)\mich-i.jpg,i,,,,,,,,,0,0,0,27,259.97906369998236,,,,,,,,,,,,,,,,,,,,,,,,,,,,,,,,,,,,,,,,,,,,,,,253.83106860000407,253.83759549999377,259.8311360999942,259.86102969999774,259.97906369998236,260.8659153000044,260.8659153000044,260.99370299998554,265.14625679998426,4.844444444444444,5.149468899995554,,,,3ra,001,2023-11-26_20h02.31.796,CLT,2023.2.3,59.988902048927415,2023-11-26 20h02.59.736758 +0530,
C:\Users\Vinisha\Desktop\Lab in psychology\final assigment\Set 2 (Mark)\Mark-R.jpg,r,,,,,,,,,0,1,1,5,265.19896039998275,,,,,,,,,,,,,,,,,,,,,,,,,,,,,,,,,,,,,,,,,,,,,,,,,,265.1473119999864,265.19896039998275,266.1717479999934,266.1717479999934,266.2052047000034,269.38535120000597,4.838888888888889,4.158959099993808,,,,3ra,001,2023-11-26_20h02.31.796,CLT,2023.2.3,59.988902048927415,2023-11-26 20h02.59.736758 +0530,
C:\Users\Vinisha\Desktop\Lab in psychology\final assigment\Set12(salvador)\salvador-r.jpg,r,,,,,,,,,0,2,2,32,269.4568601999781,,,,,,,,,,,,,,,,,,,,,,,,,,,,,,,,,,,,,,,,,,,,,,,,,,269.38648059999105,269.4568601999781,270.41196359999594,270.41196359999594,270.47862849998637,273.43672989998595,7,3.9506225000077393,,,,3ra,001,2023-11-26_20h02.31.796,CLT,2023.2.3,59.988902048927415,2023-11-26 20h02.59.736758 +0530,
C:\Users\Vinisha\Desktop\Lab in psychology\final assigment\Set 6 (Clifford)\Clifford-N1.jpg,n,,,,,,,,,0,3,3,16,273.4962184999895,,,,,,,,,,,,,,,,,,,,,,,,,,,,,,,,,,,,,,,,,,,,,,,,,,273.43797460000496,273.4962184999895,274.4732140999986,274.4732140999986,274.53081060000113,281.5389690999873,6.811111111111112,8.025299300003098,,,,3ra,001,2023-11-26_20h02.31.796,CLT,2023.2.3,59.988902048927415,2023-11-26 20h02.59.736758 +0530,
C:\Users\Vinisha\Desktop\Lab in psychology\final assigment\Set 3 (Piet)\Piet-I.jpg,i,,,,,,,,,0,4,4,7,281.5757251000032,,,,,,,,,,,,,,,,,,,,,,,,,,,,,,,,,,,,,,,,,,,,,,,,,,281.53981349998503,281.5757251000032,282.56047659998876,282.56047659998876,282.580404599983,284.9206726999837,1.027777777777778,3.3205221999960486,,,,3ra,001,2023-11-26_20h02.31.796,CLT,2023.2.3,59.988902048927415,2023-11-26 20h02.59.736758 +0530,
C:\Users\Vinisha\Desktop\Lab in psychology\final assigment\Set 3 (Piet)\Piet-N.jpg,n,,,,,,,,,0,5,5,8,284.9641730999865,,,,,,,,,,,,,,,,,,,,,,,,,,,,,,,,,,,,,,,,,,,,,,,,,,284.92179339998984,284.9641730999865,285.9272299000004,285.9272299000004,285.97203439997975,289.63338929999736,3.911111111111111,4.651625400001649,,,,3ra,001,2023-11-26_20h02.31.796,CLT,2023.2.3,59.988902048927415,2023-11-26 20h02.59.736758 +0530,
C:\Users\Vinisha\Desktop\Lab in psychology\final assigment\Set12(salvador)\salvador-i.jpg,i,,,,,,,,,0,6,6,30,289.84298819999094,,,,,,,,,,,,,,,,,,,,,,,,,,,,,,,,,,,,,,,,,,,,,,,,,,289.6342103999923,289.84298819999094,290.64929219998885,290.64929219998885,290.85661119999713,293.7967817999888,1.0055555555555555,3.9285606000048574,,,,3ra,001,2023-11-26_20h02.31.796,CLT,2023.2.3,59.988902048927415,2023-11-26 20h02.59.736758 +0530,
C:\Users\Vinisha\Desktop\Lab in psychology\final assigment\Set10(picasso)\picasso-n.jpg,n,,,,,,,,,0,7,7,25,293.9334775999887,,,,,,,,,,,,,,,,,,,,,,,,,,,,,,,,,,,,,,,,,,,,,,,,,,293.79788159998134,293.9334775999887,294.82430249999743,294.82430249999743,294.9401842999796,296.8583247999777,7,2.894543500005966,,,,3ra,001,2023-11-26_20h02.31.796,CLT,2023.2.3,59.988902048927415,2023-11-26 20h02.59.736758 +0530,
C:\Users\Vinisha\Desktop\Lab in psychology\final assigment\Set 5 (Clifford)\Clifford-N.jpg,n,,,,,,,,,0,8,8,13,296.9727610999835,,,,,,,,,,,,,,,,,,,,,,,,,,,,,,,,,,,,,,,,,,,,,,,,,,296.85973679999006,296.9727610999835,297.89245539999683,297.89245539999683,297.9802514000039,298.8296097999846,7,1.8275976000004448,,,,3ra,001,2023-11-26_20h02.31.796,CLT,2023.2.3,59.988902048927415,2023-11-26 20h02.59.736758 +0530,
C:\Users\Vinisha\Desktop\Lab in psychology\final assigment\Set 1 (Mark)\Mark-N.jpg,n,,,,,,,,,0,9,9,1,298.8774771000026,,,,,,,,,,,,,,,,,,,,,,,,,,,,,,,,,,,,,,,,,,,,,,,,,,298.83086349998484,298.8774771000026,299.8576591000019,299.8576591000019,299.90142129999003,300.86852580000414,7,1.9509649999963585,,,,3ra,001,2023-11-26_20h02.31.796,CLT,2023.2.3,59.988902048927415,2023-11-26 20h02.59.736758 +0530,
C:\Users\Vinisha\Desktop\Lab in psychology\final assigment\Set9(Gosh)\gosh-n.jpg,n,,,,,,,,,0,10,10,22,300.9448609999963,,,,,,,,,,,,,,,,,,,,,,,,,,,,,,,,,,,,,,,,,,,,,,,,,,300.86984529998153,300.9448609999963,301.9070936999924,301.9070936999924,301.95318519999273,305.7970749999804,1.0444444444444445,4.827263999992283,,,,3ra,001,2023-11-26_20h02.31.796,CLT,2023.2.3,59.988902048927415,2023-11-26 20h02.59.736758 +0530,
C:\Users\Vinisha\Desktop\Lab in psychology\final assigment\Set 6 (Clifford)\Clifford-I1.jpg,i,,,,,,,,,0,11,11,15,305.8468523999909,,,,,,,,,,,,,,,,,,,,,,,,,,,,,,,,,,,,,,,,,,,,,,,,,,305.7985471999855,305.8468523999909,306.8185658000002,306.8185658000002,306.86476209998364,308.40975039999466,1.0444444444444445,2.5363100999966264,,,,3ra,001,2023-11-26_20h02.31.796,CLT,2023.2.3,59.988902048927415,2023-11-26 20h02.59.736758 +0530,
C:\Users\Vinisha\Desktop\Lab in psychology\final assigment\Set 5 (Clifford)\Clifford-I.jpg,i,,,,,,,,,0,12,12,14,308.5283916000044,,,,,,,,,,,,,,,,,,,,,,,,,,,,,,,,,,,,,,,,,,,,,,,,,,308.4109981999791,308.5283916000044,309.44032309998875,309.44032309998875,309.54248740000185,310.63145819999045,1.0444444444444445,2.084312300023157,,,,3ra,001,2023-11-26_20h02.31.796,CLT,2023.2.3,59.988902048927415,2023-11-26 20h02.59.736758 +0530,
C:\Users\Vinisha\Desktop\Lab in psychology\final assigment\Set 1 (Mark)\Mark-I.jpg,i,,,,,,,,,0,13,13,0,310.666175499995,,,,,,,,,,,,,,,,,,,,,,,,,,,,,,,,,,,,,,,,,,,,,,,,,,310.6321907999809,310.666175499995,311.6683476000035,311.6683476000035,311.6875486999925,314.20942539998214,6.866666666666667,3.513855800003512,,,,3ra,001,2023-11-26_20h02.31.796,CLT,2023.2.3,59.988902048927415,2023-11-26 20h02.59.736758 +0530,
C:\Users\Vinisha\Desktop\Lab in psychology\final assigment\Set 4 (Piet)\Piet-I.jpg,i,,,,,,,,,0,14,14,11,314.2659558999876,,,,,,,,,,,,,,,,,,,,,,,,,,,,,,,,,,,,,,,,,,,,,,,,,,314.21067239998956,314.2659558999876,315.23088129999815,315.23088129999815,315.27033679999295,317.51249609998195,1.1666666666666667,3.2272426999988966,,,,3ra,001,2023-11-26_20h02.31.796,CLT,2023.2.3,59.988902048927415,2023-11-26 20h02.59.736758 +0530,
C:\Users\Vinisha\Desktop\Lab in psychology\final assigment\Set 6 (Clifford)\Clifford-R.jpg,r,,,,,,,,,0,15,15,17,317.5458429999999,,,,,,,,,,,,,,,,,,,,,,,,,,,,,,,,,,,,,,,,,,,,,,,,,,317.5133789999818,317.5458429999999,318.54898809999577,318.54898809999577,318.56981099999393,319.7285073999956,1.1666666666666667,2.16224790000706,,,,3ra,001,2023-11-26_20h02.31.796,CLT,2023.2.3,59.988902048927415,2023-11-26 20h02.59.736758 +0530,
C:\Users\Vinisha\Desktop\Lab in psychology\final assigment\Set 3 (Piet)\Piet-R.jpg,r,,,,,,,,,0,16,16,6,319.76463079999667,,,,,,,,,,,,,,,,,,,,,,,,,,,,,,,,,,,,,,,,,,,,,,,,,,319.7294183000049,319.76463079999667,320.7653217999905,320.7653217999905,320.78587769999285,324.13850430000457,6.066666666666666,4.358631000010064,,,,3ra,001,2023-11-26_20h02.31.796,CLT,2023.2.3,59.988902048927415,2023-11-26 20h02.59.736758 +0530,
C:\Users\Vinisha\Desktop\Lab in psychology\final assigment\Set 2 (Mark)\Mark-N.jpg,n,,,,,,,,,0,17,17,3,324.16984329998377,,,,,,,,,,,,,,,,,,,,,,,,,,,,,,,,,,,,,,,,,,,,,,,,,,324.13925619999645,324.16984329998377,325.16524370000116,325.16524370000116,325.1872846999904,327.2155397000024,6.905555555555556,3.0238713000144344,,,,3ra,001,2023-11-26_20h02.31.796,CLT,2023.2.3,59.988902048927415,2023-11-26 20h02.59.736758 +0530,
C:\Users\Vinisha\Desktop\Lab in psychology\final assigment\Set10(picasso)\picasso-r.jpg,r,,,,,,,,,0,18,18,26,327.2799721999909,,,,,,,,,,,,,,,,,,,,,,,,,,,,,,,,,,,,,,,,,,,,,,,,,,327.21654549997766,327.2799721999909,328.2453327999974,328.2453327999974,328.28556649998063,330.8966414000024,1,3.6005274999770336,,,,3ra,001,2023-11-26_20h02.31.796,CLT,2023.2.3,59.988902048927415,2023-11-26 20h02.59.736758 +0530,
C:\Users\Vinisha\Desktop\Lab in psychology\final assigment\Set 4 (Piet)\Piet-R.jpg,r,,,,,,,,,0,19,19,10,330.9363701999828,,,,,,,,,,,,,,,,,,,,,,,,,,,,,,,,,,,,,,,,,,,,,,,,,,330.89740269997856,330.9363701999828,331.92776399999275,331.92776399999275,331.9495729999908,335.5379432000045,6.666666666666666,4.568013200012501,,,,3ra,001,2023-11-26_20h02.31.796,CLT,2023.2.3,59.988902048927415,2023-11-26 20h02.59.736758 +0530,
C:\Users\Vinisha\Desktop\Lab in psychology\final assigment\Set 4 (Piet)\Piet-N.jpg,n,,,,,,,,,0,20,20,9,335.6073338999995,,,,,,,,,,,,,,,,,,,,,,,,,,,,,,,,,,,,,,,,,,,,,,,,,,335.5402429999958,335.6073338999995,336.56034549998003,336.56034549998003,336.6211379999877,338.37706659999094,6.666666666666666,2.740793400007533,,,,3ra,001,2023-11-26_20h02.31.796,CLT,2023.2.3,59.988902048927415,2023-11-26 20h02.59.736758 +0530,
C:\Users\Vinisha\Desktop\Lab in psychology\final assigment\Set 2 (Mark)\Mark-I.jpg,i,,,,,,,,,0,21,21,4,338.4232783000043,,,,,,,,,,,,,,,,,,,,,,,,,,,,,,,,,,,,,,,,,,,,,,,,,,338.37874539999757,338.4232783000043,339.4122767999943,339.4122767999943,339.432805199991,341.02324019998196,1.0333333333333332,2.5729891999799293,,,,3ra,001,2023-11-26_20h02.31.796,CLT,2023.2.3,59.988902048927415,2023-11-26 20h02.59.736758 +0530,
C:\Users\Vinisha\Desktop\Lab in psychology\final assigment\Set8(Gosh)\gosh-i.jpg,i,,,,,,,,,0,22,22,20,341.39961249998305,,,,,,,,,,,,,,,,,,,,,,,,,,,,,,,,,,,,,,,,,,,,,,,,,,341.024219599989,341.39961249998305,342.06060909997905,342.06060909997905,342.4150619999855,345.0139603999851,6.972222222222222,3.59031369999866,,,,3ra,001,2023-11-26_20h02.31.796,CLT,2023.2.3,59.988902048927415,2023-11-26 20h02.59.736758 +0530,
C:\Users\Vinisha\Desktop\Lab in psychology\final assigment\Set8(Gosh)\gosh-n.jpg,n,,,,,,,,,0,23,23,18,345.16129789999104,,,,,,,,,,,,,,,,,,,,,,,,,,,,,,,,,,,,,,,,,,,,,,,,,,345.0148455000017,345.16129789999104,346.0507566999877,346.0507566999877,346.18283400000655,348.285770699993,1,3.099109699978726,,,,3ra,001,2023-11-26_20h02.31.796,CLT,2023.2.3,59.988902048927415,2023-11-26 20h02.59.736758 +0530,
C:\Users\Vinisha\Desktop\Lab in psychology\final assigment\Set 1 (Mark)\Mark-R.jpg,r,,,,,,,,,0,24,24,2,348.33536759999697,,,,,,,,,,,,,,,,,,,,,,,,,,,,,,,,,,,,,,,,,,,,,,,,,,348.2869432999869,348.33536759999697,349.30957290000515,349.30957290000515,349.3539055000001,350.56782029999886,1,2.217336300003808,,,,3ra,001,2023-11-26_20h02.31.796,CLT,2023.2.3,59.988902048927415,2023-11-26 20h02.59.736758 +0530,
C:\Users\Vinisha\Desktop\Lab in psychology\final assigment\Set9(Gosh)\gosh-r.jpg,r,,,,,,,,,0,25,25,23,350.59278769997763,,,,,,,,,,,,,,,,,,,,,,,,,,,,,,,,,,,,,,,,,,,,,,,,,,350.5685383999953,350.59278769997763,351.5883167999855,351.5883167999855,351.6086448999995,352.7439545999805,1,2.132004399987636,,,,3ra,001,2023-11-26_20h02.31.796,CLT,2023.2.3,59.988902048927415,2023-11-26 20h02.59.736758 +0530,
C:\Users\Vinisha\Desktop\Lab in psychology\final assigment\Set12(salvador)\salvador-n.jpg,n,,,,,,,,,0,26,26,31,352.7716530000034,,,,,,,,,,,,,,,,,,,,,,,,,,,,,,,,,,,,,,,,,,,,,,,,,,352.7448420999863,352.7716530000034,353.77782409999054,353.77782409999054,353.7995396000042,355.20123569999123,1,2.3981010999996215,,,,3ra,001,2023-11-26_20h02.31.796,CLT,2023.2.3,59.988902048927415,2023-11-26 20h02.59.736758 +0530,
C:\Users\Vinisha\Desktop\Lab in psychology\final assigment\Set9(Gosh)\gosh-i.jpg,i,,,,,,,,,0,27,27,21,355.2435457999818,,,,,,,,,,,,,,,,,,,,,,,,,,,,,,,,,,,,,,,,,,,,,,,,,,355.2025100000028,355.2435457999818,356.23901609997847,356.23901609997847,356.2621239,358.5914105999982,1.1555555555555554,3.337050000001909,,,,3ra,001,2023-11-26_20h02.31.796,CLT,2023.2.3,59.988902048927415,2023-11-26 20h02.59.736758 +0530,
C:\Users\Vinisha\Desktop\Lab in psychology\final assigment\Set10(picasso)\picasso-i.jpg,i,,,,,,,,,0,28,28,24,358.64562039999873,,,,,,,,,,,,,,,,,,,,,,,,,,,,,,,,,,,,,,,,,,,,,,,,,,358.59208059997763,358.64562039999873,359.61965360000613,359.61965360000613,359.6660774000047,361.51007109999773,1.1555555555555554,2.8379918000136968,,,,3ra,001,2023-11-26_20h02.31.796,CLT,2023.2.3,59.988902048927415,2023-11-26 20h02.59.736758 +0530,
C:\Users\Vinisha\Desktop\Lab in psychology\final assigment\Set11(Mich)\mich-n.jpg,n,,,,,,,,,0,29,29,28,361.6461267999839,,,,,,,,,,,,,,,,,,,,,,,,,,,,,,,,,,,,,,,,,,,,,,,,,,361.5111049999832,361.6461267999839,362.53568549998454,362.53568549998454,362.66181299998425,364.1338759000064,1.1555555555555554,2.474379699997371,,,,3ra,001,2023-11-26_20h02.31.796,CLT,2023.2.3,59.988902048927415,2023-11-26 20h02.59.736758 +0530,
C:\Users\Vinisha\Desktop\Lab in psychology\final assigment\Set8(Gosh)\gosh-r.jpg,r,,,,,,,,,0,30,30,19,364.8672634999966,,,,,,,,,,,,,,,,,,,,,,,,,,,,,,,,,,,,,,,,,,,,,,,,,,364.1346779000014,364.8672634999966,365.2178351999901,365.2178351999901,365.8681432000012,366.3818328999914,1.1555555555555554,1.4795666999998502,,,,3ra,001,2023-11-26_20h02.31.796,CLT,2023.2.3,59.988902048927415,2023-11-26 20h02.59.736758 +0530,
C:\Users\Vinisha\Desktop\Lab in psychology\final assigment\Set 5 (Clifford)\Clifford-R.jpg,r,,,,,,,,,0,31,31,12,366.5267185999837,,,,,,,,,,,,,,,,,,,,,,,,,,,,,,,,,,,,,,,,,,,,,,,,,,366.3834069999866,366.5267185999837,367.42134289999376,367.42134289999376,367.54727489998913,368.4062864999869,1.1555555555555554,1.855368599994108,,,,3ra,001,2023-11-26_20h02.31.796,CLT,2023.2.3,59.988902048927415,2023-11-26 20h02.59.736758 +0530,
C:\Users\Vinisha\Desktop\Lab in psychology\final assigment\Set11(Mich)\mich-r.jpg,r,,,,,,,,,0,32,32,29,368.4638416999951,,,,,,,,,,,,,,,,,,,,,,,,,,,,,,,,,,,,,,,,,,,,,,,,,,368.4072853999969,368.4638416999951,369.43828050000593,369.43828050000593,369.4843484000012,370.7313418999838,1.1555555555555554,2.237126099993475,,,,3ra,001,2023-11-26_20h02.31.796,CLT,2023.2.3,59.988902048927415,2023-11-26 20h02.59.736758 +0530,
,,,,,,,,,,,,,,,,,,,,,,,370.7320536999905,370.79742469999474,370.79742469999474,383.52391369998804,1.9833333333333334,12.738160899985814,,,,,,,,,,,,,,,,,,,,,,,,,,,,,,,,,,,,,,,,,,,,383.52396799999406,383.53089130000444,387.52432759999647,,,,,,,,
