pics,type,trials.thisRepN,trials.thisTrialN,trials.thisN,trials.thisIndex,trials_2.thisRepN,trials_2.thisTrialN,trials_2.thisN,trials_2.thisIndex,trials_3.thisRepN,trials_3.thisTrialN,trials_3.thisN,trials_3.thisIndex,thisRow.t,notes,welcome.started,text.started,key_resp.started,welcome.stopped,key_resp.keys,key_resp.rt,key_resp.duration,questions.started,question1.started,slideranswer.started,question1.stopped,slideranswer.stopped,question2.started,textbox.started,question2.stopped,textbox.stopped,questions.stopped,slideranswer.response,slideranswer.rt,textbox.text,instruction1.started,text_2.started,key_resp_2.started,instruction1.stopped,key_resp_2.keys,key_resp_2.rt,key_resp_2.duration,experiment1.started,fixation1.started,image.started,buttontomorrow_1.started,buttoninayear_1.started,fixation1.stopped,experiment1.stopped,buttontomorrow_1.numClicks,buttontomorrow_1.timesOn,buttontomorrow_1.timesOff,buttoninayear_1.numClicks,buttoninayear_1.timesOn,buttoninayear_1.timesOff,instruction2.started,instruction.started,instruction2.stopped,experiment2.started,fixation_1.started,image_2.started,slider.started,fixation_1.stopped,experiment2.stopped,slider.response,slider.rt,instructions3.started,instruction_2.started,instructions3.stopped,experiment3.started,fixation_3.started,image_3.started,slider_2.started,fixation_3.stopped,experiment3.stopped,slider_2.response,slider_2.rt,thankyou.started,ThankYou.started,thankyou.stopped,participant,session,date,expName,psychopyVersion,frameRate,expStart,
,,,,,,,,,,,,,,,,0.0036496000248007476,0.014139500010060146,0.014139500010060146,5.071875800000271,space,5.054609700018773,None,,,,,,,,,,,,,,,,,,,,,,,,,,,,,,,,,,,,,,,,,,,,,,,,,,,,,,,,,,,4j,001,2023-11-26_23h25.34.173,CLT,2023.2.3,59.985483514185546,2023-11-26 23h26.50.926360 +0530,
,,,,,,,,,,,,,,,,,,,,,,,5.071948199998587,5.137292100000195,5.137292100000195,20.14055969999754,20.14055969999754,21.081121900002472,21.081121900002472,31.087709800020093,31.087709800020093,31.077706600015517,None,None,1,31.077746200026013,31.087709800020093,31.087709800020093,38.98593670001719,space,7.888336799980607,None,,,,,,,,,,,,,,,,,,,,,,,,,,,,,,,,,,,,,,,4j,001,2023-11-26_23h25.34.173,CLT,2023.2.3,59.985483514185546,2023-11-26 23h26.50.926360 +0530,
C:\Users\Vinisha\Desktop\Lab in psychology\final assigment\Set 4 (Piet)\Piet-N.jpg,n,0,0,0,9,,,,,,,,,39.02996230000281,,,,,,,,,,,,,,,,,,,,,,,,,,,,,39.00682850001613,39.02996230000281,40.04302870001993,40.04302870001993,40.04302870001993,40.053003000008175,47.418312399997376,0,,,1,[7.432270499994047],[7.432278599997517],,,,,,,,,,,,,,,,,,,,,,,,,,4j,001,2023-11-26_23h25.34.173,CLT,2023.2.3,59.985483514185546,2023-11-26 23h26.50.926360 +0530,
C:\Users\Vinisha\Desktop\Lab in psychology\final assigment\Set9(Gosh)\gosh-i.jpg,i,0,1,1,21,,,,,,,,,47.44029660001979,,,,,,,,,,,,,,,,,,,,,,,,,,,,,47.43003590000444,47.44029660001979,48.43302710002172,48.43302710002172,48.43302710002172,48.449307900009444,53.767294400022365,1,[5.351173700008076],[5.351179299992509],0,,,,,,,,,,,,,,,,,,,,,,,,,,,,4j,001,2023-11-26_23h25.34.173,CLT,2023.2.3,59.985483514185546,2023-11-26 23h26.50.926360 +0530,
C:\Users\Vinisha\Desktop\Lab in psychology\final assigment\Set 4 (Piet)\Piet-R.jpg,r,0,2,2,10,,,,,,,,,53.78941779999877,,,,,,,,,,,,,,,,,,,,,,,,,,,,,53.7678635000193,53.78941779999877,54.780763200018555,54.780763200018555,54.780763200018555,54.79740480001783,59.48118390000309,1,[4.717073999985587],[4.717082799994387],0,,,,,,,,,,,,,,,,,,,,,,,,,,,,4j,001,2023-11-26_23h25.34.173,CLT,2023.2.3,59.985483514185546,2023-11-26 23h26.50.926360 +0530,
C:\Users\Vinisha\Desktop\Lab in psychology\final assigment\Set12(salvador)\salvador-r.jpg,r,0,3,3,32,,,,,,,,,59.51644860001397,,,,,,,,,,,,,,,,,,,,,,,,,,,,,59.481968600011896,59.51644860001397,60.49571129999822,60.49571129999822,60.49571129999822,60.5289613000059,67.42945960001089,0,,,1,[6.949941099999705],[6.9499516999931075],,,,,,,,,,,,,,,,,,,,,,,,,,4j,001,2023-11-26_23h25.34.173,CLT,2023.2.3,59.985483514185546,2023-11-26 23h26.50.926360 +0530,
C:\Users\Vinisha\Desktop\Lab in psychology\final assigment\Set 2 (Mark)\Mark-R.jpg,r,0,4,4,5,,,,,,,,,67.46309699999983,,,,,,,,,,,,,,,,,,,,,,,,,,,,,67.43049590001465,67.46309699999983,68.44626170000993,68.44626170000993,68.44626170000993,68.45937520000734,75.01011329999892,1,[6.583192800026154],[6.583203600021079],0,,,,,,,,,,,,,,,,,,,,,,,,,,,,4j,001,2023-11-26_23h25.34.173,CLT,2023.2.3,59.985483514185546,2023-11-26 23h26.50.926360 +0530,
C:\Users\Vinisha\Desktop\Lab in psychology\final assigment\Set 2 (Mark)\Mark-I.jpg,i,0,5,5,4,,,,,,,,,75.03238129999954,,,,,,,,,,,,,,,,,,,,,,,,,,,,,75.01103190000867,75.03238129999954,76.02857670001686,76.02857670001686,76.02857670001686,76.04064660001313,81.10783069999889,1,[5.099663500004681],[5.099673699995037],0,,,,,,,,,,,,,,,,,,,,,,,,,,,,4j,001,2023-11-26_23h25.34.173,CLT,2023.2.3,59.985483514185546,2023-11-26 23h26.50.926360 +0530,
C:\Users\Vinisha\Desktop\Lab in psychology\final assigment\Set 1 (Mark)\Mark-N.jpg,n,0,6,6,1,,,,,,,,,81.1322648000205,,,,,,,,,,,,,,,,,,,,,,,,,,,,,81.10871980001684,81.1322648000205,82.12213699999847,82.12213699999847,82.12213699999847,82.13875150002423,84.44003310002154,0,,,1,[2.334530599997379],[2.33453880000161],,,,,,,,,,,,,,,,,,,,,,,,,,4j,001,2023-11-26_23h25.34.173,CLT,2023.2.3,59.985483514185546,2023-11-26 23h26.50.926360 +0530,
C:\Users\Vinisha\Desktop\Lab in psychology\final assigment\Set11(Mich)\mich-n.jpg,n,0,7,7,28,,,,,,,,,84.4991149000125,,,,,,,,,,,,,,,,,,,,,,,,,,,,,84.44075670000166,84.4991149000125,85.45539370001643,85.45539370001643,85.45539370001643,85.5042386999994,88.15563730002032,1,[2.71768339999835],[2.717690199991921],0,,,,,,,,,,,,,,,,,,,,,,,,,,,,4j,001,2023-11-26_23h25.34.173,CLT,2023.2.3,59.985483514185546,2023-11-26 23h26.50.926360 +0530,
C:\Users\Vinisha\Desktop\Lab in psychology\final assigment\Set 5 (Clifford)\Clifford-N.jpg,n,0,8,8,13,,,,,,,,,88.20533240001532,,,,,,,,,,,,,,,,,,,,,,,,,,,,,88.15624320000643,88.20533240001532,89.1708194000239,89.1708194000239,89.1708194000239,89.21990370002459,90.98806540001533,0,,,1,[1.8345712999871466],[1.834581300005084],,,,,,,,,,,,,,,,,,,,,,,,,,4j,001,2023-11-26_23h25.34.173,CLT,2023.2.3,59.985483514185546,2023-11-26 23h26.50.926360 +0530,
C:\Users\Vinisha\Desktop\Lab in psychology\final assigment\Set8(Gosh)\gosh-i.jpg,i,0,9,9,20,,,,,,,,,91.16598499999964,,,,,,,,,,,,,,,,,,,,,,,,,,,,,90.98892520001391,91.16598499999964,92.00661260000197,92.00661260000197,92.00661260000197,92.17036910000024,93.83803730001091,0,,,1,[1.8523005000024568],[1.8523067000205629],,,,,,,,,,,,,,,,,,,,,,,,,,4j,001,2023-11-26_23h25.34.173,CLT,2023.2.3,59.985483514185546,2023-11-26 23h26.50.926360 +0530,
C:\Users\Vinisha\Desktop\Lab in psychology\final assigment\Set 1 (Mark)\Mark-I.jpg,i,0,10,10,0,,,,,,,,,93.90492910001194,,,,,,,,,,,,,,,,,,,,,,,,,,,,,93.83860940000159,93.90492910001194,94.85181590000866,94.85181590000866,94.85181590000866,94.91802209999878,98.73591200000374,1,[3.900848200020846],[3.9008543000090867],0,,,,,,,,,,,,,,,,,,,,,,,,,,,,4j,001,2023-11-26_23h25.34.173,CLT,2023.2.3,59.985483514185546,2023-11-26 23h26.50.926360 +0530,
C:\Users\Vinisha\Desktop\Lab in psychology\final assigment\Set9(Gosh)\gosh-n.jpg,n,0,11,11,22,,,,,,,,,98.7503353000211,,,,,,,,,,,,,,,,,,,,,,,,,,,,,98.73653580000973,98.7503353000211,99.74992750000092,99.74992750000092,99.74992750000092,99.76637450000271,103.15002339999774,1,[3.4163918000122067],[3.41639739999664],0,,,,,,,,,,,,,,,,,,,,,,,,,,,,4j,001,2023-11-26_23h25.34.173,CLT,2023.2.3,59.985483514185546,2023-11-26 23h26.50.926360 +0530,
C:\Users\Vinisha\Desktop\Lab in psychology\final assigment\Set 1 (Mark)\Mark-R.jpg,r,0,12,12,2,,,,,,,,,103.1735156000068,,,,,,,,,,,,,,,,,,,,,,,,,,,,,103.15060000002268,103.1735156000068,104.17057090002345,104.17057090002345,104.17057090002345,104.18163320000167,108.61549230001401,1,[4.4664202999847475],[4.466425699996762],0,,,,,,,,,,,,,,,,,,,,,,,,,,,,4j,001,2023-11-26_23h25.34.173,CLT,2023.2.3,59.985483514185546,2023-11-26 23h26.50.926360 +0530,
C:\Users\Vinisha\Desktop\Lab in psychology\final assigment\Set12(salvador)\salvador-n.jpg,n,0,13,13,31,,,,,,,,,108.6325829999987,,,,,,,,,,,,,,,,,,,,,,,,,,,,,108.61637040000642,108.6325829999987,109.63494920000085,109.63494920000085,109.63494920000085,109.64690859999973,115.98013000001083,1,[6.3658852000080515],[6.365895800001454],0,,,,,,,,,,,,,,,,,,,,,,,,,,,,4j,001,2023-11-26_23h25.34.173,CLT,2023.2.3,59.985483514185546,2023-11-26 23h26.50.926360 +0530,
C:\Users\Vinisha\Desktop\Lab in psychology\final assigment\Set11(Mich)\mich-r.jpg,r,0,14,14,29,,,,,,,,,116.00748570001451,,,,,,,,,,,,,,,,,,,,,,,,,,,,,115.98104400001466,116.00748570001451,116.99463290002313,116.99463290002313,116.99463290002313,117.01124730001902,121.22891990002245,0,,,1,[4.250264300004346],[4.250274200021522],,,,,,,,,,,,,,,,,,,,,,,,,,4j,001,2023-11-26_23h25.34.173,CLT,2023.2.3,59.985483514185546,2023-11-26 23h26.50.926360 +0530,
C:\Users\Vinisha\Desktop\Lab in psychology\final assigment\Set12(salvador)\salvador-i.jpg,i,0,15,15,30,,,,,,,,,121.36107620000257,,,,,,,,,,,,,,,,,,,,,,,,,,,,,121.22979520002264,121.36107620000257,122.24566670000786,122.24566670000786,122.24566670000786,122.3602001000254,127.0779100000218,1,[4.851360600005137],[4.8513701999909244],0,,,,,,,,,,,,,,,,,,,,,,,,,,,,4j,001,2023-11-26_23h25.34.173,CLT,2023.2.3,59.985483514185546,2023-11-26 23h26.50.926360 +0530,
C:\Users\Vinisha\Desktop\Lab in psychology\final assigment\Set10(picasso)\picasso-n.jpg,n,0,16,16,25,,,,,,,,,127.10130260000005,,,,,,,,,,,,,,,,,,,,,,,,,,,,,127.07872560000396,127.10130260000005,128.09093900001608,128.09093900001608,128.09093900001608,128.10773430002155,130.24253030002,0,,,1,[2.1683729000214953],[2.168381000024965],,,,,,,,,,,,,,,,,,,,,,,,,,4j,001,2023-11-26_23h25.34.173,CLT,2023.2.3,59.985483514185546,2023-11-26 23h26.50.926360 +0530,
C:\Users\Vinisha\Desktop\Lab in psychology\final assigment\Set 2 (Mark)\Mark-N.jpg,n,0,17,17,3,,,,,,,,,130.26498890001676,,,,,,,,,,,,,,,,,,,,,,,,,,,,,130.24323439999716,130.26498890001676,131.25682989999768,131.25682989999768,131.25682989999768,131.27329969999846,132.29181930000777,0,,,1,[1.0512597000051755],[1.05127279998851],,,,,,,,,,,,,,,,,,,,,,,,,,4j,001,2023-11-26_23h25.34.173,CLT,2023.2.3,59.985483514185546,2023-11-26 23h26.50.926360 +0530,
C:\Users\Vinisha\Desktop\Lab in psychology\final assigment\Set 6 (Clifford)\Clifford-R.jpg,r,0,18,18,17,,,,,,,,,132.31486090002,,,,,,,,,,,,,,,,,,,,,,,,,,,,,132.29299950000132,132.31486090002,133.31093740000506,133.31093740000506,133.31093740000506,133.32272779999766,136.7737735999981,1,[3.483857600018382],[3.4838630000012927],0,,,,,,,,,,,,,,,,,,,,,,,,,,,,4j,001,2023-11-26_23h25.34.173,CLT,2023.2.3,59.985483514185546,2023-11-26 23h26.50.926360 +0530,
C:\Users\Vinisha\Desktop\Lab in psychology\final assigment\Set 5 (Clifford)\Clifford-R.jpg,r,0,19,19,12,,,,,,,,,136.8371486000251,,,,,,,,,,,,,,,,,,,,,,,,,,,,,136.77436370000942,136.8371486000251,137.78951410000445,137.78951410000445,137.78951410000445,137.83831479999935,141.78902250001556,0,,,1,[4.017121300013969],[4.017131200002041],,,,,,,,,,,,,,,,,,,,,,,,,,4j,001,2023-11-26_23h25.34.173,CLT,2023.2.3,59.985483514185546,2023-11-26 23h26.50.926360 +0530,
C:\Users\Vinisha\Desktop\Lab in psychology\final assigment\Set 4 (Piet)\Piet-I.jpg,i,0,20,20,11,,,,,,,,,141.81667339999694,,,,,,,,,,,,,,,,,,,,,,,,,,,,,141.7899199000094,141.81667339999694,142.80334360001143,142.80334360001143,142.80334360001143,142.82002549999743,146.60387040002388,0,,,1,[3.8167376999917906],[3.816748599987477],,,,,,,,,,,,,,,,,,,,,,,,,,4j,001,2023-11-26_23h25.34.173,CLT,2023.2.3,59.985483514185546,2023-11-26 23h26.50.926360 +0530,
C:\Users\Vinisha\Desktop\Lab in psychology\final assigment\Set 6 (Clifford)\Clifford-I1.jpg,i,0,21,21,15,,,,,,,,,146.6275147999986,,,,,,,,,,,,,,,,,,,,,,,,,,,,,146.60479199999827,146.6275147999986,147.6217328000057,147.6217328000057,147.6217328000057,147.63506920001237,150.68520060001174,0,,,1,[3.082979200000409],[3.08298669999931],,,,,,,,,,,,,,,,,,,,,,,,,,4j,001,2023-11-26_23h25.34.173,CLT,2023.2.3,59.985483514185546,2023-11-26 23h26.50.926360 +0530,
C:\Users\Vinisha\Desktop\Lab in psychology\final assigment\Set 6 (Clifford)\Clifford-N1.jpg,n,0,22,22,16,,,,,,,,,150.71547730002203,,,,,,,,,,,,,,,,,,,,,,,,,,,,,150.68600440002047,150.71547730002203,151.70049320001272,151.70049320001272,151.70049320001272,151.71690260001924,153.06819940000423,0,,,1,[1.384272499999497],[1.3842814000090584],,,,,,,,,,,,,,,,,,,,,,,,,,4j,001,2023-11-26_23h25.34.173,CLT,2023.2.3,59.985483514185546,2023-11-26 23h26.50.926360 +0530,
C:\Users\Vinisha\Desktop\Lab in psychology\final assigment\Set 5 (Clifford)\Clifford-I.jpg,i,0,23,23,14,,,,,,,,,153.13632080002571,,,,,,,,,,,,,,,,,,,,,,,,,,,,,153.0689625000232,153.13632080002571,154.08405510001467,154.08405510001467,154.08405510001467,154.1496820000175,156.71786689999863,1,[2.651139699999476],[2.6511510999989696],0,,,,,,,,,,,,,,,,,,,,,,,,,,,,4j,001,2023-11-26_23h25.34.173,CLT,2023.2.3,59.985483514185546,2023-11-26 23h26.50.926360 +0530,
C:\Users\Vinisha\Desktop\Lab in psychology\final assigment\Set10(picasso)\picasso-r.jpg,r,0,24,24,26,,,,,,,,,156.75623600001563,,,,,,,,,,,,,,,,,,,,,,,,,,,,,156.7188294000225,156.75623600001563,157.73485380000784,157.73485380000784,157.73485380000784,157.76503670000238,162.5323700000008,1,[4.816444700001739],[4.816456100001233],0,,,,,,,,,,,,,,,,,,,,,,,,,,,,4j,001,2023-11-26_23h25.34.173,CLT,2023.2.3,59.985483514185546,2023-11-26 23h26.50.926360 +0530,
C:\Users\Vinisha\Desktop\Lab in psychology\final assigment\Set 3 (Piet)\Piet-R.jpg,r,0,25,25,6,,,,,,,,,162.5569392000034,,,,,,,,,,,,,,,,,,,,,,,,,,,,,162.53343270000187,162.5569392000034,163.54658690001816,163.54658690001816,163.54658690001816,163.5630498000246,165.99818310001865,0,,,1,[2.4677754000003915],[2.4677853000175674],,,,,,,,,,,,,,,,,,,,,,,,,,4j,001,2023-11-26_23h25.34.173,CLT,2023.2.3,59.985483514185546,2023-11-26 23h26.50.926360 +0530,
C:\Users\Vinisha\Desktop\Lab in psychology\final assigment\Set8(Gosh)\gosh-r.jpg,r,0,26,26,19,,,,,,,,,166.548795300012,,,,,,,,,,,,,,,,,,,,,,,,,,,,,165.99905969999963,166.548795300012,167.0516256999981,167.0516256999981,167.0516256999981,167.54841400001897,169.33377890000702,0,,,1,[2.3377261999994516],[2.3377370000234805],,,,,,,,,,,,,,,,,,,,,,,,,,4j,001,2023-11-26_23h25.34.173,CLT,2023.2.3,59.985483514185546,2023-11-26 23h26.50.926360 +0530,
C:\Users\Vinisha\Desktop\Lab in psychology\final assigment\Set 3 (Piet)\Piet-N.jpg,n,0,27,27,8,,,,,,,,,169.35820500002592,,,,,,,,,,,,,,,,,,,,,,,,,,,,,169.33470269999816,169.35820500002592,170.3451905999973,170.3451905999973,170.3451905999973,170.36127540000598,172.71230740001192,0,,,1,[2.3839912000112236],[2.384000100020785],,,,,,,,,,,,,,,,,,,,,,,,,,4j,001,2023-11-26_23h25.34.173,CLT,2023.2.3,59.985483514185546,2023-11-26 23h26.50.926360 +0530,
C:\Users\Vinisha\Desktop\Lab in psychology\final assigment\Set8(Gosh)\gosh-n.jpg,n,0,28,28,18,,,,,,,,,172.79514300002484,,,,,,,,,,,,,,,,,,,,,,,,,,,,,172.71306340000592,172.79514300002484,173.72877010001685,173.72877010001685,173.72877010001685,173.81030450001708,181.14335990001564,1,[7.433384800009662],[7.433393899991643],0,,,,,,,,,,,,,,,,,,,,,,,,,,,,4j,001,2023-11-26_23h25.34.173,CLT,2023.2.3,59.985483514185546,2023-11-26 23h26.50.926360 +0530,
C:\Users\Vinisha\Desktop\Lab in psychology\final assigment\Set10(picasso)\picasso-i.jpg,i,0,29,29,24,,,,,,,,,181.18286100000842,,,,,,,,,,,,,,,,,,,,,,,,,,,,,181.14415670000017,181.18286100000842,182.16119179999805,182.16119179999805,182.16119179999805,182.1908223000064,184.74244410000392,0,,,1,[2.600653900008183],[2.6006661000137683],,,,,,,,,,,,,,,,,,,,,,,,,,4j,001,2023-11-26_23h25.34.173,CLT,2023.2.3,59.985483514185546,2023-11-26 23h26.50.926360 +0530,
C:\Users\Vinisha\Desktop\Lab in psychology\final assigment\Set9(Gosh)\gosh-r.jpg,r,0,30,30,23,,,,,,,,,184.76227560002008,,,,,,,,,,,,,,,,,,,,,,,,,,,,,184.74347410001792,184.76227560002008,185.75646800000686,185.75646800000686,185.75646800000686,185.77282370001194,187.82462640001904,1,[2.0843122999940533],[2.0843229000165593],0,,,,,,,,,,,,,,,,,,,,,,,,,,,,4j,001,2023-11-26_23h25.34.173,CLT,2023.2.3,59.985483514185546,2023-11-26 23h26.50.926360 +0530,
C:\Users\Vinisha\Desktop\Lab in psychology\final assigment\Set 3 (Piet)\Piet-I.jpg,i,0,31,31,7,,,,,,,,,187.8498109000211,,,,,,,,,,,,,,,,,,,,,,,,,,,,,187.82555720000528,187.8498109000211,188.83848230002332,188.83848230002332,188.83848230002332,188.85530590001144,197.22142890002578,0,,,1,[8.399586799991084],[8.399597899988294],,,,,,,,,,,,,,,,,,,,,,,,,,4j,001,2023-11-26_23h25.34.173,CLT,2023.2.3,59.985483514185546,2023-11-26 23h26.50.926360 +0530,
C:\Users\Vinisha\Desktop\Lab in psychology\final assigment\Set11(Mich)\mich-i.jpg,i,0,32,32,27,,,,,,,,,197.28975650001667,,,,,,,,,,,,,,,,,,,,,,,,,,,,,197.2223696000001,197.28975650001667,198.23802370001795,198.23802370001795,198.23802370001795,198.3023252999992,201.82055230002152,1,[3.601070400007302],[3.6010790999862365],0,,,,,,,,,,,,,,,,,,,,,,,,,,,,4j,001,2023-11-26_23h25.34.173,CLT,2023.2.3,59.985483514185546,2023-11-26 23h26.50.926360 +0530,
C:\Users\Vinisha\Desktop\Lab in psychology\final assigment\Set 6 (Clifford)\Clifford-N1.jpg,n,,,,,0,0,0,16,,,,,207.8785598000104,,,,,,,,,,,,,,,,,,,,,,,,,,,,,,,,,,,,,,,,,,201.8211860000156,201.83398710002075,207.832536300004,207.8472226000158,207.8785598000104,208.8313689000206,208.8313689000206,208.88173350002035,214.35042690002592,1,6.460557500016876,,,,,,,,,,,,,,,4j,001,2023-11-26_23h25.34.173,CLT,2023.2.3,59.985483514185546,2023-11-26 23h26.50.926360 +0530,
C:\Users\Vinisha\Desktop\Lab in psychology\final assigment\Set 3 (Piet)\Piet-R.jpg,r,,,,,0,1,1,6,,,,,214.36838140001055,,,,,,,,,,,,,,,,,,,,,,,,,,,,,,,,,,,,,,,,,,,,,214.35086080001201,214.36838140001055,215.37083230001736,215.37083230001736,215.38061260001268,221.015682199999,3.0166666666666666,6.635322099988116,,,,,,,,,,,,,,,4j,001,2023-11-26_23h25.34.173,CLT,2023.2.3,59.985483514185546,2023-11-26 23h26.50.926360 +0530,
C:\Users\Vinisha\Desktop\Lab in psychology\final assigment\Set10(picasso)\picasso-i.jpg,i,,,,,0,2,2,24,,,,,221.0463524000079,,,,,,,,,,,,,,,,,,,,,,,,,,,,,,,,,,,,,,,,,,,,,221.01606530000572,221.0463524000079,222.02731860001222,222.02731860001222,222.06069939999725,226.47989340001368,4.944444444444445,5.422343700018246,,,,,,,,,,,,,,,4j,001,2023-11-26_23h25.34.173,CLT,2023.2.3,59.985483514185546,2023-11-26 23h26.50.926360 +0530,
C:\Users\Vinisha\Desktop\Lab in psychology\final assigment\Set11(Mich)\mich-i.jpg,i,,,,,0,3,3,27,,,,,226.5342212000105,,,,,,,,,,,,,,,,,,,,,,,,,,,,,,,,,,,,,,,,,,,,,226.48022029999993,226.5342212000105,227.49411290002172,227.49411290002172,227.54271920002066,231.02828570001293,4.05,4.483101799996803,,,,,,,,,,,,,,,4j,001,2023-11-26_23h25.34.173,CLT,2023.2.3,59.985483514185546,2023-11-26 23h26.50.926360 +0530,
C:\Users\Vinisha\Desktop\Lab in psychology\final assigment\Set 1 (Mark)\Mark-I.jpg,i,,,,,0,4,4,0,,,,,231.04439270001603,,,,,,,,,,,,,,,,,,,,,,,,,,,,,,,,,,,,,,,,,,,,,231.02859180001542,231.04439270001603,232.04150660001324,232.04150660001324,232.0576750000182,236.65999190000002,2.9166666666666665,5.604465499985963,,,,,,,,,,,,,,,4j,001,2023-11-26_23h25.34.173,CLT,2023.2.3,59.985483514185546,2023-11-26 23h26.50.926360 +0530,
C:\Users\Vinisha\Desktop\Lab in psychology\final assigment\Set 3 (Piet)\Piet-N.jpg,n,,,,,0,5,5,8,,,,,236.67492310001398,,,,,,,,,,,,,,,,,,,,,,,,,,,,,,,,,,,,,,,,,,,,,236.66034400000353,236.67492310001398,237.6843684000196,237.6843684000196,237.69469640002353,244.07422880001832,1.0166666666666666,7.3876429999945685,,,,,,,,,,,,,,,4j,001,2023-11-26_23h25.34.173,CLT,2023.2.3,59.985483514185546,2023-11-26 23h26.50.926360 +0530,
C:\Users\Vinisha\Desktop\Lab in psychology\final assigment\Set8(Gosh)\gosh-n.jpg,n,,,,,0,6,6,18,,,,,244.14537010001368,,,,,,,,,,,,,,,,,,,,,,,,,,,,,,,,,,,,,,,,,,,,,244.074532300001,244.14537010001368,245.09428489999846,245.09428489999846,245.15365490000113,247.04024530001334,1.0166666666666666,2.8839164999953937,,,,,,,,,,,,,,,4j,001,2023-11-26_23h25.34.173,CLT,2023.2.3,59.985483514185546,2023-11-26 23h26.50.926360 +0530,
C:\Users\Vinisha\Desktop\Lab in psychology\final assigment\Set 2 (Mark)\Mark-R.jpg,r,,,,,0,7,7,5,,,,,247.0615427000157,,,,,,,,,,,,,,,,,,,,,,,,,,,,,,,,,,,,,,,,,,,,,247.040633000026,247.0615427000157,248.06044220001786,248.06044220001786,248.07196950001526,250.95551910001086,3.0388888888888888,3.8824674999923445,,,,,,,,,,,,,,,4j,001,2023-11-26_23h25.34.173,CLT,2023.2.3,59.985483514185546,2023-11-26 23h26.50.926360 +0530,
C:\Users\Vinisha\Desktop\Lab in psychology\final assigment\Set 2 (Mark)\Mark-I.jpg,i,,,,,0,8,8,4,,,,,250.97087640000973,,,,,,,,,,,,,,,,,,,,,,,,,,,,,,,,,,,,,,,,,,,,,250.95581920002587,250.97087640000973,251.97904100001324,251.97904100001324,251.9913904000132,254.72091699999874,4.911111111111111,3.7375690000189934,,,,,,,,,,,,,,,4j,001,2023-11-26_23h25.34.173,CLT,2023.2.3,59.985483514185546,2023-11-26 23h26.50.926360 +0530,
C:\Users\Vinisha\Desktop\Lab in psychology\final assigment\Set 4 (Piet)\Piet-R.jpg,r,,,,,0,9,9,10,,,,,254.73818960000062,,,,,,,,,,,,,,,,,,,,,,,,,,,,,,,,,,,,,,,,,,,,,254.72120960001484,254.73818960000062,255.74006290000398,255.74006290000398,255.75491280001006,257.9696230000118,6.061111111111112,3.2204995999927633,,,,,,,,,,,,,,,4j,001,2023-11-26_23h25.34.173,CLT,2023.2.3,59.985483514185546,2023-11-26 23h26.50.926360 +0530,
C:\Users\Vinisha\Desktop\Lab in psychology\final assigment\Set12(salvador)\salvador-r.jpg,r,,,,,0,10,10,32,,,,,257.99573560000863,,,,,,,,,,,,,,,,,,,,,,,,,,,,,,,,,,,,,,,,,,,,,257.96993970000767,257.99573560000863,258.98257000002195,258.98257000002195,258.9992763000191,262.01873860001797,6.861111111111111,4.011892700014869,,,,,,,,,,,,,,,4j,001,2023-11-26_23h25.34.173,CLT,2023.2.3,59.985483514185546,2023-11-26 23h26.50.926360 +0530,
C:\Users\Vinisha\Desktop\Lab in psychology\final assigment\Set9(Gosh)\gosh-i.jpg,i,,,,,0,11,11,21,,,,,262.0316182000097,,,,,,,,,,,,,,,,,,,,,,,,,,,,,,,,,,,,,,,,,,,,,262.0190571999992,262.0316182000097,263.0376796000055,263.0376796000055,263.0376796000055,267.7338650000165,1.9666666666666666,5.691808999981731,,,,,,,,,,,,,,,4j,001,2023-11-26_23h25.34.173,CLT,2023.2.3,59.985483514185546,2023-11-26 23h26.50.926360 +0530,
C:\Users\Vinisha\Desktop\Lab in psychology\final assigment\Set 5 (Clifford)\Clifford-I.jpg,i,,,,,0,12,12,14,,,,,267.79323200002545,,,,,,,,,,,,,,,,,,,,,,,,,,,,,,,,,,,,,,,,,,,,,267.7341914999997,267.79323200002545,268.7462298000173,268.7462298000173,268.7961055000196,274.8313259000133,3.0555555555555554,7.02693459999864,,,,,,,,,,,,,,,4j,001,2023-11-26_23h25.34.173,CLT,2023.2.3,59.985483514185546,2023-11-26 23h26.50.926360 +0530,
C:\Users\Vinisha\Desktop\Lab in psychology\final assigment\Set 6 (Clifford)\Clifford-R.jpg,r,,,,,0,13,13,17,,,,,274.8447404000035,,,,,,,,,,,,,,,,,,,,,,,,,,,,,,,,,,,,,,,,,,,,,274.831651400018,274.8447404000035,275.8522731999983,275.8522731999983,275.8522731999983,278.14686540002003,4.022222222222222,3.289981900015846,,,,,,,,,,,,,,,4j,001,2023-11-26_23h25.34.173,CLT,2023.2.3,59.985483514185546,2023-11-26 23h26.50.926360 +0530,
C:\Users\Vinisha\Desktop\Lab in psychology\final assigment\Set 3 (Piet)\Piet-I.jpg,i,,,,,0,14,14,7,,,,,278.1637680999993,,,,,,,,,,,,,,,,,,,,,,,,,,,,,,,,,,,,,,,,,,,,,278.14718770000036,278.1637680999993,279.17039990000194,279.17039990000194,279.18406110000797,282.44557830001577,2.1166666666666667,4.270136399980402,,,,,,,,,,,,,,,4j,001,2023-11-26_23h25.34.173,CLT,2023.2.3,59.985483514185546,2023-11-26 23h26.50.926360 +0530,
C:\Users\Vinisha\Desktop\Lab in psychology\final assigment\Set8(Gosh)\gosh-r.jpg,r,,,,,0,15,15,19,,,,,282.93794260002323,,,,,,,,,,,,,,,,,,,,,,,,,,,,,,,,,,,,,,,,,,,,,282.44591830001445,282.93794260002323,283.50234430001,283.50234430001,283.9415162000223,287.06110720001743,2.988888888888889,4.111837000004016,,,,,,,,,,,,,,,4j,001,2023-11-26_23h25.34.173,CLT,2023.2.3,59.985483514185546,2023-11-26 23h26.50.926360 +0530,
C:\Users\Vinisha\Desktop\Lab in psychology\final assigment\Set11(Mich)\mich-n.jpg,n,,,,,0,16,16,28,,,,,287.1100379000127,,,,,,,,,,,,,,,,,,,,,,,,,,,,,,,,,,,,,,,,,,,,,287.0614744000195,287.1100379000127,288.09265110001434,288.09265110001434,288.10656949999975,290.5928038000129,2.0166666666666666,3.4714226000069175,,,,,,,,,,,,,,,4j,001,2023-11-26_23h25.34.173,CLT,2023.2.3,59.985483514185546,2023-11-26 23h26.50.926360 +0530,
C:\Users\Vinisha\Desktop\Lab in psychology\final assigment\Set12(salvador)\salvador-n.jpg,n,,,,,0,17,17,31,,,,,290.6059280000045,,,,,,,,,,,,,,,,,,,,,,,,,,,,,,,,,,,,,,,,,,,,,290.59312790000695,290.6059280000045,291.61644820001675,291.61644820001675,291.61644820001675,295.1916734999977,2.0,4.576011900004232,,,,,,,,,,,,,,,4j,001,2023-11-26_23h25.34.173,CLT,2023.2.3,59.985483514185546,2023-11-26 23h26.50.926360 +0530,
C:\Users\Vinisha\Desktop\Lab in psychology\final assigment\Set 4 (Piet)\Piet-I.jpg,i,,,,,0,18,18,11,,,,,295.2084196000069,,,,,,,,,,,,,,,,,,,,,,,,,,,,,,,,,,,,,,,,,,,,,295.19197510002414,295.2084196000069,296.20626760000596,296.20626760000596,296.221180499997,298.3905515000224,1,3.1697923000028823,,,,,,,,,,,,,,,4j,001,2023-11-26_23h25.34.173,CLT,2023.2.3,59.985483514185546,2023-11-26 23h26.50.926360 +0530,
C:\Users\Vinisha\Desktop\Lab in psychology\final assigment\Set9(Gosh)\gosh-n.jpg,n,,,,,0,19,19,22,,,,,298.40856340000755,,,,,,,,,,,,,,,,,,,,,,,,,,,,,,,,,,,,,,,,,,,,,298.3908460000239,298.40856340000755,299.4100566999987,299.4100566999987,299.4200321000244,305.52176210001926,1.9611111111111112,7.101859300018987,,,,,,,,,,,,,,,4j,001,2023-11-26_23h25.34.173,CLT,2023.2.3,59.985483514185546,2023-11-26 23h26.50.926360 +0530,
C:\Users\Vinisha\Desktop\Lab in psychology\final assigment\Set10(picasso)\picasso-r.jpg,r,,,,,0,20,20,26,,,,,305.5475774000224,,,,,,,,,,,,,,,,,,,,,,,,,,,,,,,,,,,,,,,,,,,,,305.5221050000109,305.5475774000224,306.54437870002585,306.54437870002585,306.5591115000134,310.7206066000217,3.088888888888889,5.161383500002557,,,,,,,,,,,,,,,4j,001,2023-11-26_23h25.34.173,CLT,2023.2.3,59.985483514185546,2023-11-26 23h26.50.926360 +0530,
C:\Users\Vinisha\Desktop\Lab in psychology\final assigment\Set 1 (Mark)\Mark-R.jpg,r,,,,,0,21,21,2,,,,,310.7384003000043,,,,,,,,,,,,,,,,,,,,,,,,,,,,,,,,,,,,,,,,,,,,,310.72096980002243,310.7384003000043,311.743166500004,311.743166500004,311.7539352000167,314.5023146000167,4.016666666666667,3.7527299000066705,,,,,,,,,,,,,,,4j,001,2023-11-26_23h25.34.173,CLT,2023.2.3,59.985483514185546,2023-11-26 23h26.50.926360 +0530,
C:\Users\Vinisha\Desktop\Lab in psychology\final assigment\Set8(Gosh)\gosh-i.jpg,i,,,,,0,22,22,20,,,,,314.65119360000244,,,,,,,,,,,,,,,,,,,,,,,,,,,,,,,,,,,,,,,,,,,,,314.50267350001377,314.65119360000244,315.5284152000095,315.5284152000095,315.6650837000052,325.24869410000974,1,10.589045799977612,,,,,,,,,,,,,,,4j,001,2023-11-26_23h25.34.173,CLT,2023.2.3,59.985483514185546,2023-11-26 23h26.50.926360 +0530,
C:\Users\Vinisha\Desktop\Lab in psychology\final assigment\Set 1 (Mark)\Mark-N.jpg,n,,,,,0,23,23,1,,,,,325.26353640001616,,,,,,,,,,,,,,,,,,,,,,,,,,,,,,,,,,,,,,,,,,,,,325.24899710001773,325.26353640001616,326.27062890000525,326.27062890000525,326.2803541000176,330.79760040002293,1,5.522429000004195,,,,,,,,,,,,,,,4j,001,2023-11-26_23h25.34.173,CLT,2023.2.3,59.985483514185546,2023-11-26 23h26.50.926360 +0530,
C:\Users\Vinisha\Desktop\Lab in psychology\final assigment\Set 5 (Clifford)\Clifford-N.jpg,n,,,,,0,24,24,13,,,,,330.8336317000212,,,,,,,,,,,,,,,,,,,,,,,,,,,,,,,,,,,,,,,,,,,,,330.79789919999894,330.8336317000212,331.8276901000063,331.8276901000063,331.840809300018,334.3294804000179,1.95,3.4842906999983825,,,,,,,,,,,,,,,4j,001,2023-11-26_23h25.34.173,CLT,2023.2.3,59.985483514185546,2023-11-26 23h26.50.926360 +0530,
C:\Users\Vinisha\Desktop\Lab in psychology\final assigment\Set 6 (Clifford)\Clifford-I1.jpg,i,,,,,0,25,25,15,,,,,334.34333120001247,,,,,,,,,,,,,,,,,,,,,,,,,,,,,,,,,,,,,,,,,,,,,334.32979390001856,334.34333120001247,335.34897849999834,335.34897849999834,335.3586580000119,338.2281994000077,5.127777777777778,3.8729405000049155,,,,,,,,,,,,,,,4j,001,2023-11-26_23h25.34.173,CLT,2023.2.3,59.985483514185546,2023-11-26 23h26.50.926360 +0530,
C:\Users\Vinisha\Desktop\Lab in psychology\final assigment\Set9(Gosh)\gosh-r.jpg,r,,,,,0,26,26,23,,,,,338.24117390002357,,,,,,,,,,,,,,,,,,,,,,,,,,,,,,,,,,,,,,,,,,,,,338.22849970002426,338.24117390002357,339.243412300013,339.243412300013,339.243412300013,341.6937298999983,3.9944444444444445,3.4425929999852087,,,,,,,,,,,,,,,4j,001,2023-11-26_23h25.34.173,CLT,2023.2.3,59.985483514185546,2023-11-26 23h26.50.926360 +0530,
C:\Users\Vinisha\Desktop\Lab in psychology\final assigment\Set10(picasso)\picasso-n.jpg,n,,,,,0,27,27,25,,,,,341.70927760002087,,,,,,,,,,,,,,,,,,,,,,,,,,,,,,,,,,,,,,,,,,,,,341.6940688000177,341.70927760002087,342.7158394000144,342.7158394000144,342.72742730000755,347.792007800017,1.9722222222222223,6.0709615999949165,,,,,,,,,,,,,,,4j,001,2023-11-26_23h25.34.173,CLT,2023.2.3,59.985483514185546,2023-11-26 23h26.50.926360 +0530,
C:\Users\Vinisha\Desktop\Lab in psychology\final assigment\Set 2 (Mark)\Mark-N.jpg,n,,,,,0,28,28,3,,,,,347.80613130002166,,,,,,,,,,,,,,,,,,,,,,,,,,,,,,,,,,,,,,,,,,,,,347.7923535000009,347.80613130002166,348.80446770001436,348.80446770001436,348.8216670000111,350.8576372000098,1.0333333333333332,3.0403951999905985,,,,,,,,,,,,,,,4j,001,2023-11-26_23h25.34.173,CLT,2023.2.3,59.985483514185546,2023-11-26 23h26.50.926360 +0530,
C:\Users\Vinisha\Desktop\Lab in psychology\final assigment\Set12(salvador)\salvador-i.jpg,i,,,,,0,29,29,30,,,,,350.9677040000097,,,,,,,,,,,,,,,,,,,,,,,,,,,,,,,,,,,,,,,,,,,,,350.85800230002496,350.9677040000097,351.8801805000112,351.8801805000112,351.9703855999978,356.5892142000084,5.033333333333333,5.611611000000266,,,,,,,,,,,,,,,4j,001,2023-11-26_23h25.34.173,CLT,2023.2.3,59.985483514185546,2023-11-26 23h26.50.926360 +0530,
C:\Users\Vinisha\Desktop\Lab in psychology\final assigment\Set11(Mich)\mich-r.jpg,r,,,,,0,30,30,29,,,,,356.6123785000236,,,,,,,,,,,,,,,,,,,,,,,,,,,,,,,,,,,,,,,,,,,,,356.5895043000055,356.6123785000236,357.60775370002375,357.60775370002375,357.6186273000203,360.3378176999977,6.044444444444444,3.714292299991939,,,,,,,,,,,,,,,4j,001,2023-11-26_23h25.34.173,CLT,2023.2.3,59.985483514185546,2023-11-26 23h26.50.926360 +0530,
C:\Users\Vinisha\Desktop\Lab in psychology\final assigment\Set 4 (Piet)\Piet-N.jpg,n,,,,,0,31,31,9,,,,,360.35395350001636,,,,,,,,,,,,,,,,,,,,,,,,,,,,,,,,,,,,,,,,,,,,,360.33814590002294,360.35395350001636,361.3601641000132,361.3601641000132,361.3708391000109,363.6197938999976,1.9944444444444445,3.2552034000109416,,,,,,,,,,,,,,,4j,001,2023-11-26_23h25.34.173,CLT,2023.2.3,59.985483514185546,2023-11-26 23h26.50.926360 +0530,
C:\Users\Vinisha\Desktop\Lab in psychology\final assigment\Set 5 (Clifford)\Clifford-R.jpg,r,,,,,0,32,32,12,,,,,363.67844600000535,,,,,,,,,,,,,,,,,,,,,,,,,,,,,,,,,,,,,,,,,,,,,363.6201367000176,363.67844600000535,364.6465485000226,364.6465485000226,364.6829699000227,368.1530630000052,6.055555555555555,4.46266900000046,,,,,,,,,,,,,,,4j,001,2023-11-26_23h25.34.173,CLT,2023.2.3,59.985483514185546,2023-11-26 23h26.50.926360 +0530,
C:\Users\Vinisha\Desktop\Lab in psychology\final assigment\Set 6 (Clifford)\Clifford-R.jpg,r,,,,,,,,,0,0,0,17,374.2008166000014,,,,,,,,,,,,,,,,,,,,,,,,,,,,,,,,,,,,,,,,,,,,,,,,,,,,,368.15328590001445,368.1654553000117,374.1640659000259,374.1805974000017,374.2008166000014,375.182744300022,375.182744300022,375.2118092000019,383.68050180000137,2.0666666666666664,9.468838600005256,,,,4j,001,2023-11-26_23h25.34.173,CLT,2023.2.3,59.985483514185546,2023-11-26 23h26.50.926360 +0530,
C:\Users\Vinisha\Desktop\Lab in psychology\final assigment\Set11(Mich)\mich-r.jpg,r,,,,,,,,,0,1,1,29,383.7061006000149,,,,,,,,,,,,,,,,,,,,,,,,,,,,,,,,,,,,,,,,,,,,,,,,,,,,,,,,383.6811744000006,383.7061006000149,384.6955200000084,384.6955200000084,384.7103253000241,388.17869749999954,1.0055555555555555,4.461576900008367,,,,4j,001,2023-11-26_23h25.34.173,CLT,2023.2.3,59.985483514185546,2023-11-26 23h26.50.926360 +0530,
C:\Users\Vinisha\Desktop\Lab in psychology\final assigment\Set 1 (Mark)\Mark-I.jpg,i,,,,,,,,,0,2,2,0,388.1950124000141,,,,,,,,,,,,,,,,,,,,,,,,,,,,,,,,,,,,,,,,,,,,,,,,,,,,,,,,388.1790135000192,388.1950124000141,389.1965138000087,389.1965138000087,389.2087688000174,392.02836280001793,3.9833333333333334,3.821247799991397,,,,4j,001,2023-11-26_23h25.34.173,CLT,2023.2.3,59.985483514185546,2023-11-26 23h26.50.926360 +0530,
C:\Users\Vinisha\Desktop\Lab in psychology\final assigment\Set10(picasso)\picasso-n.jpg,n,,,,,,,,,0,3,3,25,392.0462419000105,,,,,,,,,,,,,,,,,,,,,,,,,,,,,,,,,,,,,,,,,,,,,,,,,,,,,,,,392.0286974000046,392.0462419000105,393.040896600025,393.040896600025,393.0574567000149,395.7108744000143,6.016666666666667,3.6526891000103205,,,,4j,001,2023-11-26_23h25.34.173,CLT,2023.2.3,59.985483514185546,2023-11-26 23h26.50.926360 +0530,
C:\Users\Vinisha\Desktop\Lab in psychology\final assigment\Set9(Gosh)\gosh-i.jpg,i,,,,,,,,,0,4,4,21,395.72375030000694,,,,,,,,,,,,,,,,,,,,,,,,,,,,,,,,,,,,,,,,,,,,,,,,,,,,,,,,395.71125560000655,395.72375030000694,396.7229677000141,396.7229677000141,396.7229677000141,399.9924929999979,6.972222222222222,4.257271200011019,,,,4j,001,2023-11-26_23h25.34.173,CLT,2023.2.3,59.985483514185546,2023-11-26 23h26.50.926360 +0530,
C:\Users\Vinisha\Desktop\Lab in psychology\final assigment\Set12(salvador)\salvador-r.jpg,r,,,,,,,,,0,5,5,32,400.02071560002514,,,,,,,,,,,,,,,,,,,,,,,,,,,,,,,,,,,,,,,,,,,,,,,,,,,,,,,,399.99283030000515,400.02071560002514,401.00829460000386,401.00829460000386,401.0217737000203,405.7404070000048,1,5.7084065999952145,,,,4j,001,2023-11-26_23h25.34.173,CLT,2023.2.3,59.985483514185546,2023-11-26 23h26.50.926360 +0530,
C:\Users\Vinisha\Desktop\Lab in psychology\final assigment\Set10(picasso)\picasso-r.jpg,r,,,,,,,,,0,6,6,26,405.76656430002186,,,,,,,,,,,,,,,,,,,,,,,,,,,,,,,,,,,,,,,,,,,,,,,,,,,,,,,,405.7407221000176,405.76656430002186,406.7647106000222,406.7647106000222,406.77630540000973,409.5065109000134,4.0,3.7279416999954265,,,,4j,001,2023-11-26_23h25.34.173,CLT,2023.2.3,59.985483514185546,2023-11-26 23h26.50.926360 +0530,
C:\Users\Vinisha\Desktop\Lab in psychology\final assigment\Set9(Gosh)\gosh-n.jpg,n,,,,,,,,,0,7,7,22,409.525845199998,,,,,,,,,,,,,,,,,,,,,,,,,,,,,,,,,,,,,,,,,,,,,,,,,,,,,,,,409.50687790001393,409.525845199998,410.52526059999946,410.52526059999946,410.5353623999981,413.0885147000081,1.9611111111111112,3.5504859999928158,,,,4j,001,2023-11-26_23h25.34.173,CLT,2023.2.3,59.985483514185546,2023-11-26 23h26.50.926360 +0530,
C:\Users\Vinisha\Desktop\Lab in psychology\final assigment\Set 2 (Mark)\Mark-I.jpg,i,,,,,,,,,0,8,8,4,413.1011669000145,,,,,,,,,,,,,,,,,,,,,,,,,,,,,,,,,,,,,,,,,,,,,,,,,,,,,,,,413.0888479000132,413.1011669000145,414.1032028000045,414.1032028000045,414.1032028000045,418.08655930001987,3.0166666666666666,4.973677299974952,,,,4j,001,2023-11-26_23h25.34.173,CLT,2023.2.3,59.985483514185546,2023-11-26 23h26.50.926360 +0530,
C:\Users\Vinisha\Desktop\Lab in psychology\final assigment\Set 6 (Clifford)\Clifford-N1.jpg,n,,,,,,,,,0,9,9,16,418.1083954000205,,,,,,,,,,,,,,,,,,,,,,,,,,,,,,,,,,,,,,,,,,,,,,,,,,,,,,,,418.0868981000094,418.1083954000205,419.0993511000124,419.0993511000124,419.1161048000213,423.06826530001126,7,4.948220999998739,,,,4j,001,2023-11-26_23h25.34.173,CLT,2023.2.3,59.985483514185546,2023-11-26 23h26.50.926360 +0530,
C:\Users\Vinisha\Desktop\Lab in psychology\final assigment\Set 2 (Mark)\Mark-R.jpg,r,,,,,,,,,0,10,10,5,423.0912434000056,,,,,,,,,,,,,,,,,,,,,,,,,,,,,,,,,,,,,,,,,,,,,,,,,,,,,,,,423.06856910002534,423.0912434000056,424.0812276000215,424.0812276000215,424.0978425000212,430.04966710001463,3.938888888888889,6.9472401999810245,,,,4j,001,2023-11-26_23h25.34.173,CLT,2023.2.3,59.985483514185546,2023-11-26 23h26.50.926360 +0530,
C:\Users\Vinisha\Desktop\Lab in psychology\final assigment\Set 5 (Clifford)\Clifford-I.jpg,i,,,,,,,,,0,11,11,14,430.1187174000079,,,,,,,,,,,,,,,,,,,,,,,,,,,,,,,,,,,,,,,,,,,,,,,,,,,,,,,,430.050003500015,430.1187174000079,431.06208770000376,431.06208770000376,431.1291761000175,436.7972289000172,5.027777777777778,6.667197200004011,,,,4j,001,2023-11-26_23h25.34.173,CLT,2023.2.3,59.985483514185546,2023-11-26 23h26.50.926360 +0530,
C:\Users\Vinisha\Desktop\Lab in psychology\final assigment\Set8(Gosh)\gosh-r.jpg,r,,,,,,,,,0,12,12,19,437.29585290001705,,,,,,,,,,,,,,,,,,,,,,,,,,,,,,,,,,,,,,,,,,,,,,,,,,,,,,,,436.7975425000186,437.29585290001705,437.85112380000646,437.85112380000646,438.3099932000041,441.6962230000063,1,4.3884781999804545,,,,4j,001,2023-11-26_23h25.34.173,CLT,2023.2.3,59.985483514185546,2023-11-26 23h26.50.926360 +0530,
C:\Users\Vinisha\Desktop\Lab in psychology\final assigment\Set 2 (Mark)\Mark-N.jpg,n,,,,,,,,,0,13,13,3,441.7123046000197,,,,,,,,,,,,,,,,,,,,,,,,,,,,,,,,,,,,,,,,,,,,,,,,,,,,,,,,441.69661450001877,441.7123046000197,442.7088369000121,442.7088369000121,442.72536760001094,448.87663370001246,5.0055555555555555,7.153006900014589,,,,4j,001,2023-11-26_23h25.34.173,CLT,2023.2.3,59.985483514185546,2023-11-26 23h26.50.926360 +0530,
C:\Users\Vinisha\Desktop\Lab in psychology\final assigment\Set12(salvador)\salvador-n.jpg,n,,,,,,,,,0,14,14,31,448.88981040002545,,,,,,,,,,,,,,,,,,,,,,,,,,,,,,,,,,,,,,,,,,,,,,,,,,,,,,,,448.8769530999998,448.88981040002545,449.8961538000149,449.8961538000149,449.8961538000149,453.07580330001656,5.966666666666667,4.175834900001064,,,,4j,001,2023-11-26_23h25.34.173,CLT,2023.2.3,59.985483514185546,2023-11-26 23h26.50.926360 +0530,
C:\Users\Vinisha\Desktop\Lab in psychology\final assigment\Set11(Mich)\mich-i.jpg,i,,,,,,,,,0,15,15,27,453.1297634000075,,,,,,,,,,,,,,,,,,,,,,,,,,,,,,,,,,,,,,,,,,,,,,,,,,,,,,,,453.076160800003,453.1297634000075,454.0885473000235,454.0885473000235,454.1385751000198,460.32304660000955,3.977777777777778,7.183056400011992,,,,4j,001,2023-11-26_23h25.34.173,CLT,2023.2.3,59.985483514185546,2023-11-26 23h26.50.926360 +0530,
C:\Users\Vinisha\Desktop\Lab in psychology\final assigment\Set 3 (Piet)\Piet-R.jpg,r,,,,,,,,,0,16,16,6,460.3364741000114,,,,,,,,,,,,,,,,,,,,,,,,,,,,,,,,,,,,,,,,,,,,,,,,,,,,,,,,460.3233598000079,460.3364741000114,461.33896910000476,461.33896910000476,461.33896910000476,463.6386382000055,4.916666666666667,3.289881399978185,,,,4j,001,2023-11-26_23h25.34.173,CLT,2023.2.3,59.985483514185546,2023-11-26 23h26.50.926360 +0530,
C:\Users\Vinisha\Desktop\Lab in psychology\final assigment\Set9(Gosh)\gosh-r.jpg,r,,,,,,,,,0,17,17,23,463.6518449000141,,,,,,,,,,,,,,,,,,,,,,,,,,,,,,,,,,,,,,,,,,,,,,,,,,,,,,,,463.638958800002,463.6518449000141,464.65788549999706,464.65788549999706,464.65788549999706,467.57150150000234,6.055555555555555,3.908552899985807,,,,4j,001,2023-11-26_23h25.34.173,CLT,2023.2.3,59.985483514185546,2023-11-26 23h26.50.926360 +0530,
C:\Users\Vinisha\Desktop\Lab in psychology\final assigment\Set 3 (Piet)\Piet-I.jpg,i,,,,,,,,,0,18,18,7,467.5872185000044,,,,,,,,,,,,,,,,,,,,,,,,,,,,,,,,,,,,,,,,,,,,,,,,,,,,,,,,467.5718473000161,467.5872185000044,468.5837890000257,468.5837890000257,468.6005864000181,474.36976739999955,4.977777777777778,6.770824999985052,,,,4j,001,2023-11-26_23h25.34.173,CLT,2023.2.3,59.985483514185546,2023-11-26 23h26.50.926360 +0530,
C:\Users\Vinisha\Desktop\Lab in psychology\final assigment\Set11(Mich)\mich-n.jpg,n,,,,,,,,,0,19,19,28,474.41797530002077,,,,,,,,,,,,,,,,,,,,,,,,,,,,,,,,,,,,,,,,,,,,,,,,,,,,,,,,474.3701453000249,474.41797530002077,475.3942896000226,475.3942896000226,475.4248382000078,478.4345246000157,3.9944444444444445,4.0049449000216555,,,,4j,001,2023-11-26_23h25.34.173,CLT,2023.2.3,59.985483514185546,2023-11-26 23h26.50.926360 +0530,
C:\Users\Vinisha\Desktop\Lab in psychology\final assigment\Set 1 (Mark)\Mark-R.jpg,r,,,,,,,,,0,20,20,2,478.45374920000904,,,,,,,,,,,,,,,,,,,,,,,,,,,,,,,,,,,,,,,,,,,,,,,,,,,,,,,,478.43482230001246,478.45374920000904,479.4502578000247,479.4502578000247,479.46413500001654,482.06680090000737,5.933333333333334,3.601896200008923,,,,4j,001,2023-11-26_23h25.34.173,CLT,2023.2.3,59.985483514185546,2023-11-26 23h26.50.926360 +0530,
C:\Users\Vinisha\Desktop\Lab in psychology\final assigment\Set8(Gosh)\gosh-i.jpg,i,,,,,,,,,0,21,21,20,482.2120175000164,,,,,,,,,,,,,,,,,,,,,,,,,,,,,,,,,,,,,,,,,,,,,,,,,,,,,,,,482.0671159000194,482.2120175000164,483.08567530001164,483.08567530001164,483.2130055000016,486.3483302000095,5.0055555555555555,4.12742679999792,,,,4j,001,2023-11-26_23h25.34.173,CLT,2023.2.3,59.985483514185546,2023-11-26 23h26.50.926360 +0530,
C:\Users\Vinisha\Desktop\Lab in psychology\final assigment\Set8(Gosh)\gosh-n.jpg,n,,,,,,,,,0,22,22,18,486.4088042000076,,,,,,,,,,,,,,,,,,,,,,,,,,,,,,,,,,,,,,,,,,,,,,,,,,,,,,,,486.3486436000094,486.4088042000076,487.37265530001605,487.37265530001605,487.41185390000464,491.0639890000166,7,4.644572599994717,,,,4j,001,2023-11-26_23h25.34.173,CLT,2023.2.3,59.985483514185546,2023-11-26 23h26.50.926360 +0530,
C:\Users\Vinisha\Desktop\Lab in psychology\final assigment\Set 3 (Piet)\Piet-N.jpg,n,,,,,,,,,0,23,23,8,491.0791591000161,,,,,,,,,,,,,,,,,,,,,,,,,,,,,,,,,,,,,,,,,,,,,,,,,,,,,,,,491.06432780000614,491.0791591000161,492.08406470000045,492.08406470000045,492.09588310000254,494.2465450000018,6.994444444444444,3.1561137000098825,,,,4j,001,2023-11-26_23h25.34.173,CLT,2023.2.3,59.985483514185546,2023-11-26 23h26.50.926360 +0530,
C:\Users\Vinisha\Desktop\Lab in psychology\final assigment\Set 1 (Mark)\Mark-N.jpg,n,,,,,,,,,0,24,24,1,494.2617107999977,,,,,,,,,,,,,,,,,,,,,,,,,,,,,,,,,,,,,,,,,,,,,,,,,,,,,,,,494.24689280000166,494.2617107999977,495.26122140002553,495.26122140002553,495.2754889000207,496.62881500000367,6.944444444444445,2.355327600002056,,,,4j,001,2023-11-26_23h25.34.173,CLT,2023.2.3,59.985483514185546,2023-11-26 23h26.50.926360 +0530,
C:\Users\Vinisha\Desktop\Lab in psychology\final assigment\Set 5 (Clifford)\Clifford-R.jpg,r,,,,,,,,,0,25,25,12,496.68560880000587,,,,,,,,,,,,,,,,,,,,,,,,,,,,,,,,,,,,,,,,,,,,,,,,,,,,,,,,496.62913870002376,496.68560880000587,497.64920610000263,497.64920610000263,497.6916459000204,504.3765992000117,2.9944444444444445,7.679989700001897,,,,4j,001,2023-11-26_23h25.34.173,CLT,2023.2.3,59.985483514185546,2023-11-26 23h26.50.926360 +0530,
C:\Users\Vinisha\Desktop\Lab in psychology\final assigment\Set 6 (Clifford)\Clifford-I1.jpg,i,,,,,,,,,0,26,26,15,504.3908724000212,,,,,,,,,,,,,,,,,,,,,,,,,,,,,,,,,,,,,,,,,,,,,,,,,,,,,,,,504.376915300003,504.3908724000212,505.39730100001907,505.39730100001907,505.40814710000996,507.87521930001094,3.9944444444444445,3.473383099975763,,,,4j,001,2023-11-26_23h25.34.173,CLT,2023.2.3,59.985483514185546,2023-11-26 23h26.50.926360 +0530,
C:\Users\Vinisha\Desktop\Lab in psychology\final assigment\Set10(picasso)\picasso-i.jpg,i,,,,,,,,,0,27,27,24,507.9043387999991,,,,,,,,,,,,,,,,,,,,,,,,,,,,,,,,,,,,,,,,,,,,,,,,,,,,,,,,507.87558120000176,507.9043387999991,508.88792040001135,508.88792040001135,508.90455000000657,516.0225776000007,5.0166666666666675,8.107755999983056,,,,4j,001,2023-11-26_23h25.34.173,CLT,2023.2.3,59.985483514185546,2023-11-26 23h26.50.926360 +0530,
C:\Users\Vinisha\Desktop\Lab in psychology\final assigment\Set 4 (Piet)\Piet-R.jpg,r,,,,,,,,,0,28,28,10,516.0408342000155,,,,,,,,,,,,,,,,,,,,,,,,,,,,,,,,,,,,,,,,,,,,,,,,,,,,,,,,516.0228919000074,516.0408342000155,517.0356396000134,517.0356396000134,517.052265300008,520.7880263999978,6.933333333333334,4.735993100010091,,,,4j,001,2023-11-26_23h25.34.173,CLT,2023.2.3,59.985483514185546,2023-11-26 23h26.50.926360 +0530,
C:\Users\Vinisha\Desktop\Lab in psychology\final assigment\Set12(salvador)\salvador-i.jpg,i,,,,,,,,,0,29,29,30,520.8956004000211,,,,,,,,,,,,,,,,,,,,,,,,,,,,,,,,,,,,,,,,,,,,,,,,,,,,,,,,520.7883475999988,520.8956004000211,521.8071152000048,521.8071152000048,521.9006171000074,525.2865299000114,4.033333333333333,4.380868100008229,,,,4j,001,2023-11-26_23h25.34.173,CLT,2023.2.3,59.985483514185546,2023-11-26 23h26.50.926360 +0530,
C:\Users\Vinisha\Desktop\Lab in psychology\final assigment\Set 4 (Piet)\Piet-N.jpg,n,,,,,,,,,0,30,30,9,525.3042541000177,,,,,,,,,,,,,,,,,,,,,,,,,,,,,,,,,,,,,,,,,,,,,,,,,,,,,,,,525.2868822000164,525.3042541000177,526.3087957000243,526.3087957000243,526.3200216999976,529.1522181000037,4.961111111111111,3.836314299987862,,,,4j,001,2023-11-26_23h25.34.173,CLT,2023.2.3,59.985483514185546,2023-11-26 23h26.50.926360 +0530,
C:\Users\Vinisha\Desktop\Lab in psychology\final assigment\Set 5 (Clifford)\Clifford-N.jpg,n,,,,,,,,,0,31,31,13,529.1885761000158,,,,,,,,,,,,,,,,,,,,,,,,,,,,,,,,,,,,,,,,,,,,,,,,,,,,,,,,529.1525114000251,529.1885761000158,530.1648008000047,530.1648008000047,530.1983515000029,533.1671809000254,6.966666666666667,3.9674147000187077,,,,4j,001,2023-11-26_23h25.34.173,CLT,2023.2.3,59.985483514185546,2023-11-26 23h26.50.926360 +0530,
C:\Users\Vinisha\Desktop\Lab in psychology\final assigment\Set 4 (Piet)\Piet-I.jpg,i,,,,,,,,,0,32,32,11,533.184308099997,,,,,,,,,,,,,,,,,,,,,,,,,,,,,,,,,,,,,,,,,,,,,,,,,,,,,,,,533.1675033000065,533.184308099997,534.1879768000217,534.1879768000217,534.2022976000153,536.2497898000001,6.938888888888889,3.0536250000004657,,,,4j,001,2023-11-26_23h25.34.173,CLT,2023.2.3,59.985483514185546,2023-11-26 23h26.50.926360 +0530,
,,,,,,,,,,,,,,,,,,,,,,,536.249967700016,536.2685561000253,536.2685561000253,,,,,,,541.0317310000246,1.0138888888888888,4.760604199982481,,,,,,,,,,,,,,,,,,,,,,,,,,,,,,,,,,,,,,,,,,,,541.0317527000152,541.0449959000107,545.0441272000025,,,,,,,,
