pics,type,trials.thisRepN,trials.thisTrialN,trials.thisN,trials.thisIndex,trials_2.thisRepN,trials_2.thisTrialN,trials_2.thisN,trials_2.thisIndex,trials_3.thisRepN,trials_3.thisTrialN,trials_3.thisN,trials_3.thisIndex,thisRow.t,notes,welcome.started,text.started,key_resp.started,welcome.stopped,key_resp.keys,key_resp.rt,key_resp.duration,questions.started,question1.started,slideranswer.started,questions.stopped,slideranswer.response,slideranswer.rt,textbox.text,instruction1.started,text_2.started,key_resp_2.started,instruction1.stopped,key_resp_2.keys,key_resp_2.rt,key_resp_2.duration,experiment1.started,fixation1.started,image.started,buttontomorrow_1.started,buttoninayear_1.started,fixation1.stopped,experiment1.stopped,buttontomorrow_1.numClicks,buttontomorrow_1.timesOn,buttontomorrow_1.timesOff,buttoninayear_1.numClicks,buttoninayear_1.timesOn,buttoninayear_1.timesOff,instruction2.started,instruction.started,instruction2.stopped,experiment2.started,fixation_1.started,image_2.started,slider.started,fixation_1.stopped,experiment2.stopped,slider.response,slider.rt,instructions3.started,instruction_2.started,instructions3.stopped,experiment3.started,fixation_3.started,image_3.started,slider_2.started,fixation_3.stopped,experiment3.stopped,slider_2.response,slider_2.rt,thankyou.started,ThankYou.started,thankyou.stopped,participant,session,date,expName,psychopyVersion,frameRate,expStart,
,,,,,,,,,,,,,,,,0.0036412000190466642,0.008091900002909824,0.008091900002909824,6.8398799000133295,space,6.8276318999996874,None,,,,,,,,,,,,,,,,,,,,,,,,,,,,,,,,,,,,,,,,,,,,,,,,,,,,,5y,001,2023-11-26_23h49.20.259,CLT,2023.2.3,59.99257292228322,2023-11-26 23h49.39.827591 +0530,
,,,,,,,,,,,,,,,,,,,,,,,6.839975700015202,6.907371500012232,6.907371500012232,15.917869199998677,2.0083333333333333,9.044389899994712,,15.917892299999949,15.932201400020858,15.932201400020858,29.19647990001249,space,13.2522768000199,None,,,,,,,,,,,,,,,,,,,,,,,,,,,,,,,,,,,,,,,5y,001,2023-11-26_23h49.20.259,CLT,2023.2.3,59.99257292228322,2023-11-26 23h49.39.827591 +0530,
C:\Users\Vinisha\Desktop\Lab in psychology\final assigment\Set 3 (Piet)\Piet-N.jpg,n,0,0,0,8,,,,,,,,,29.236201899999287,,,,,,,,,,,,,,,,,,,,,,,29.218991100002313,29.236201899999287,30.223814900004072,30.223814900004072,30.223814900004072,30.232977500010747,34.7451582000067,1,[4.550437199999578],[4.550443999993149],0,,,,,,,,,,,,,,,,,,,,,,,,,,,,5y,001,2023-11-26_23h49.20.259,CLT,2023.2.3,59.99257292228322,2023-11-26 23h49.39.827591 +0530,
C:\Users\Vinisha\Desktop\Lab in psychology\final assigment\Set12(salvador)\salvador-i.jpg,i,0,1,1,30,,,,,,,,,34.87548119999701,,,,,,,,,,,,,,,,,,,,,,,34.74622480000835,34.87548119999701,35.7622005000012,35.7622005000012,35.7622005000012,35.87681820002035,40.31378389999736,0,,,1,[4.570436600013636],[4.570454400003655],,,,,,,,,,,,,,,,,,,,,,,,,,5y,001,2023-11-26_23h49.20.259,CLT,2023.2.3,59.99257292228322,2023-11-26 23h49.39.827591 +0530,
C:\Users\Vinisha\Desktop\Lab in psychology\final assigment\Set 6 (Clifford)\Clifford-R.jpg,r,0,2,2,17,,,,,,,,,40.38238240001374,,,,,,,,,,,,,,,,,,,,,,,40.31497589999344,40.38238240001374,41.32443760000751,41.32443760000751,41.32443760000751,41.39092380000511,43.141944700008025,1,[1.8342507999914233],[1.8342575999849942],0,,,,,,,,,,,,,,,,,,,,,,,,,,,,5y,001,2023-11-26_23h49.20.259,CLT,2023.2.3,59.99257292228322,2023-11-26 23h49.39.827591 +0530,
C:\Users\Vinisha\Desktop\Lab in psychology\final assigment\Set9(Gosh)\gosh-r.jpg,r,0,3,3,23,,,,,,,,,43.156288199999835,,,,,,,,,,,,,,,,,,,,,,,43.142620800004806,43.156288199999835,44.156861900002696,44.156861900002696,44.156861900002696,44.156861900002696,46.47509130000253,1,[2.3344238999998197],[2.3344346999947447],0,,,,,,,,,,,,,,,,,,,,,,,,,,,,5y,001,2023-11-26_23h49.20.259,CLT,2023.2.3,59.99257292228322,2023-11-26 23h49.39.827591 +0530,
C:\Users\Vinisha\Desktop\Lab in psychology\final assigment\Set 2 (Mark)\Mark-R.jpg,r,0,4,4,5,,,,,,,,,46.49552090000361,,,,,,,,,,,,,,,,,,,,,,,46.47603499999968,46.49552090000361,47.48926780000329,47.48926780000329,47.48926780000329,47.505827000015415,49.80660480001825,1,[2.3340193999756593],[2.3340255999937654],0,,,,,,,,,,,,,,,,,,,,,,,,,,,,5y,001,2023-11-26_23h49.20.259,CLT,2023.2.3,59.99257292228322,2023-11-26 23h49.39.827591 +0530,
C:\Users\Vinisha\Desktop\Lab in psychology\final assigment\Set 5 (Clifford)\Clifford-R.jpg,r,0,5,5,12,,,,,,,,,49.8623324999935,,,,,,,,,,,,,,,,,,,,,,,49.807182899996405,49.8623324999935,50.8224188000022,50.8224188000022,50.8224188000022,50.87138450000202,57.57101539999712,0,,,1,[6.766077499982202],[6.766086099989479],,,,,,,,,,,,,,,,,,,,,,,,,,5y,001,2023-11-26_23h49.20.259,CLT,2023.2.3,59.99257292228322,2023-11-26 23h49.39.827591 +0530,
C:\Users\Vinisha\Desktop\Lab in psychology\final assigment\Set 3 (Piet)\Piet-R.jpg,r,0,6,6,6,,,,,,,,,57.58532110002125,,,,,,,,,,,,,,,,,,,,,,,57.57175190001726,57.58532110002125,58.58992590001435,58.58992590001435,58.58992590001435,58.58992590001435,65.12078409999958,1,[6.551403599994956],[6.551409799983958],0,,,,,,,,,,,,,,,,,,,,,,,,,,,,5y,001,2023-11-26_23h49.20.259,CLT,2023.2.3,59.99257292228322,2023-11-26 23h49.39.827591 +0530,
C:\Users\Vinisha\Desktop\Lab in psychology\final assigment\Set 2 (Mark)\Mark-I.jpg,i,0,7,7,4,,,,,,,,,65.132791800017,,,,,,,,,,,,,,,,,,,,,,,65.12136469999678,65.132791800017,66.13322509999853,66.13322509999853,66.13322509999853,66.13322509999853,76.13034430000698,0,,,0,,,,,,,,,,,,,,,,,,,,,,,,,,,,5y,001,2023-11-26_23h49.20.259,CLT,2023.2.3,59.99257292228322,2023-11-26 23h49.39.827591 +0530,
C:\Users\Vinisha\Desktop\Lab in psychology\final assigment\Set8(Gosh)\gosh-r.jpg,r,0,8,8,19,,,,,,,,,76.65903979999712,,,,,,,,,,,,,,,,,,,,,,,76.13125639999635,76.65903979999712,77.1834701000189,77.1834701000189,77.1834701000189,77.66675249999389,85.04988609999418,0,,,1,[7.935668000020087],[7.935675900022034],,,,,,,,,,,,,,,,,,,,,,,,,,5y,001,2023-11-26_23h49.20.259,CLT,2023.2.3,59.99257292228322,2023-11-26 23h49.39.827591 +0530,
C:\Users\Vinisha\Desktop\Lab in psychology\final assigment\Set 4 (Piet)\Piet-N.jpg,n,0,9,9,9,,,,,,,,,85.06639839999843,,,,,,,,,,,,,,,,,,,,,,,85.05066639999859,85.06639839999843,86.06039779999992,86.06039779999992,86.06039779999992,86.07690860002185,89.6443698000221,1,[3.600393199973041],[3.6004035999940243],0,,,,,,,,,,,,,,,,,,,,,,,,,,,,5y,001,2023-11-26_23h49.20.259,CLT,2023.2.3,59.99257292228322,2023-11-26 23h49.39.827591 +0530,
C:\Users\Vinisha\Desktop\Lab in psychology\final assigment\Set10(picasso)\picasso-i.jpg,i,0,10,10,24,,,,,,,,,89.67303220002213,,,,,,,,,,,,,,,,,,,,,,,89.64537569999811,89.67303220002213,90.66308719999506,90.66308719999506,90.66308719999506,90.67787010001484,97.35955640001339,0,,,1,[6.715469899994787],[6.71548359998269],,,,,,,,,,,,,,,,,,,,,,,,,,5y,001,2023-11-26_23h49.20.259,CLT,2023.2.3,59.99257292228322,2023-11-26 23h49.39.827591 +0530,
C:\Users\Vinisha\Desktop\Lab in psychology\final assigment\Set9(Gosh)\gosh-i.jpg,i,0,11,11,21,,,,,,,,,97.37272290000692,,,,,,,,,,,,,,,,,,,,,,,97.36073179999948,97.37272290000692,98.37333540001418,98.37333540001418,98.37333540001418,98.37333540001418,105.70608420000644,1,[7.3492457999964245],[7.349254000000656],0,,,,,,,,,,,,,,,,,,,,,,,,,,,,5y,001,2023-11-26_23h49.20.259,CLT,2023.2.3,59.99257292228322,2023-11-26 23h49.39.827591 +0530,
C:\Users\Vinisha\Desktop\Lab in psychology\final assigment\Set 6 (Clifford)\Clifford-N1.jpg,n,0,12,12,16,,,,,,,,,105.72593370001414,,,,,,,,,,,,,,,,,,,,,,,105.70689400000265,105.72593370001414,106.72084759999416,106.72084759999416,106.72084759999416,106.73748609999893,111.70471910000197,1,[5.000364200008335],[5.00037500000326],0,,,,,,,,,,,,,,,,,,,,,,,,,,,,5y,001,2023-11-26_23h49.20.259,CLT,2023.2.3,59.99257292228322,2023-11-26 23h49.39.827591 +0530,
C:\Users\Vinisha\Desktop\Lab in psychology\final assigment\Set11(Mich)\mich-i.jpg,i,0,13,13,27,,,,,,,,,111.76665880001383,,,,,,,,,,,,,,,,,,,,,,,111.70580520000658,111.76665880001383,112.72317090001889,112.72317090001889,112.72317090001889,112.76858319999883,117.40534300002037,0,,,1,[4.701452800014522],[4.701467300008517],,,,,,,,,,,,,,,,,,,,,,,,,,5y,001,2023-11-26_23h49.20.259,CLT,2023.2.3,59.99257292228322,2023-11-26 23h49.39.827591 +0530,
C:\Users\Vinisha\Desktop\Lab in psychology\final assigment\Set12(salvador)\salvador-r.jpg,r,0,14,14,32,,,,,,,,,117.43758550001075,,,,,,,,,,,,,,,,,,,,,,,117.40661900001578,117.43758550001075,118.41716270000325,118.41716270000325,118.41716270000325,118.45033459999831,120.9355077999935,0,,,1,[2.5341143000114243],[2.534125500009395],,,,,,,,,,,,,,,,,,,,,,,,,,5y,001,2023-11-26_23h49.20.259,CLT,2023.2.3,59.99257292228322,2023-11-26 23h49.39.827591 +0530,
C:\Users\Vinisha\Desktop\Lab in psychology\final assigment\Set 3 (Piet)\Piet-I.jpg,i,0,15,15,7,,,,,,,,,120.9510728000023,,,,,,,,,,,,,,,,,,,,,,,120.9365140000009,120.9510728000023,121.94954260002123,121.94954260002123,121.94954260002123,121.96580410000752,125.09982329999912,1,[3.1669564000039827],[3.1669633999990765],0,,,,,,,,,,,,,,,,,,,,,,,,,,,,5y,001,2023-11-26_23h49.20.259,CLT,2023.2.3,59.99257292228322,2023-11-26 23h49.39.827591 +0530,
C:\Users\Vinisha\Desktop\Lab in psychology\final assigment\Set 2 (Mark)\Mark-N.jpg,n,0,16,16,3,,,,,,,,,125.1142882000131,,,,,,,,,,,,,,,,,,,,,,,125.10040220001247,125.1142882000131,126.11458700001822,126.11458700001822,126.11458700001822,126.11458700001822,128.1820721999975,1,[2.083814599987818],[2.0838223999890033],0,,,,,,,,,,,,,,,,,,,,,,,,,,,,5y,001,2023-11-26_23h49.20.259,CLT,2023.2.3,59.99257292228322,2023-11-26 23h49.39.827591 +0530,
C:\Users\Vinisha\Desktop\Lab in psychology\final assigment\Set 5 (Clifford)\Clifford-N.jpg,n,0,17,17,13,,,,,,,,,128.21671450001304,,,,,,,,,,,,,,,,,,,,,,,128.18274129999918,128.21671450001304,129.20004890000564,129.20004890000564,129.20004890000564,129.2135244999954,130.69923930001096,1,[1.5180166000209283],[1.5180285000242293],0,,,,,,,,,,,,,,,,,,,,,,,,,,,,5y,001,2023-11-26_23h49.20.259,CLT,2023.2.3,59.99257292228322,2023-11-26 23h49.39.827591 +0530,
C:\Users\Vinisha\Desktop\Lab in psychology\final assigment\Set 1 (Mark)\Mark-I.jpg,i,0,18,18,0,,,,,,,,,130.71741450001718,,,,,,,,,,,,,,,,,,,,,,,130.7003076999972,130.71741450001718,131.7131425999978,131.7131425999978,131.7131425999978,131.7295042000187,133.79791620001197,0,,,1,[2.1012679999985266],[2.1012787999934517],,,,,,,,,,,,,,,,,,,,,,,,,,5y,001,2023-11-26_23h49.20.259,CLT,2023.2.3,59.99257292228322,2023-11-26 23h49.39.827591 +0530,
C:\Users\Vinisha\Desktop\Lab in psychology\final assigment\Set8(Gosh)\gosh-i.jpg,i,0,19,19,20,,,,,,,,,133.9479427000042,,,,,,,,,,,,,,,,,,,,,,,133.7988768000214,133.9479427000042,134.8161584000045,134.8161584000045,134.8161584000045,134.96261529999902,136.49809910001932,0,,,1,[1.703254599997308],[1.703264300012961],,,,,,,,,,,,,,,,,,,,,,,,,,5y,001,2023-11-26_23h49.20.259,CLT,2023.2.3,59.99257292228322,2023-11-26 23h49.39.827591 +0530,
C:\Users\Vinisha\Desktop\Lab in psychology\final assigment\Set 1 (Mark)\Mark-R.jpg,r,0,20,20,2,,,,,,,,,136.5143631999963,,,,,,,,,,,,,,,,,,,,,,,136.498983700003,136.5143631999963,137.5113415000087,137.5113415000087,137.5113415000087,137.5276528999966,140.744938000018,1,[3.2503392999933567],[3.2503480999730527],0,,,,,,,,,,,,,,,,,,,,,,,,,,,,5y,001,2023-11-26_23h49.20.259,CLT,2023.2.3,59.99257292228322,2023-11-26 23h49.39.827591 +0530,
C:\Users\Vinisha\Desktop\Lab in psychology\final assigment\Set10(picasso)\picasso-n.jpg,n,0,21,21,25,,,,,,,,,140.76143340001,,,,,,,,,,,,,,,,,,,,,,,140.74627299999702,140.76143340001,141.7598086000071,141.7598086000071,141.7598086000071,141.77635940001346,145.6927343000134,1,[3.9493230000080075],[3.9493301000038628],0,,,,,,,,,,,,,,,,,,,,,,,,,,,,5y,001,2023-11-26_23h49.20.259,CLT,2023.2.3,59.99257292228322,2023-11-26 23h49.39.827591 +0530,
C:\Users\Vinisha\Desktop\Lab in psychology\final assigment\Set 1 (Mark)\Mark-N.jpg,n,0,22,22,1,,,,,,,,,145.7075310999935,,,,,,,,,,,,,,,,,,,,,,,145.69353770001908,145.7075310999935,146.70806060000905,146.70806060000905,146.70806060000905,146.70806060000905,148.1592915999936,1,[1.4679262000136077],[1.467933300009463],0,,,,,,,,,,,,,,,,,,,,,,,,,,,,5y,001,2023-11-26_23h49.20.259,CLT,2023.2.3,59.99257292228322,2023-11-26 23h49.39.827591 +0530,
C:\Users\Vinisha\Desktop\Lab in psychology\final assigment\Set12(salvador)\salvador-n.jpg,n,0,23,23,31,,,,,,,,,148.17360830001417,,,,,,,,,,,,,,,,,,,,,,,148.15998389999731,148.17360830001417,149.17573820002144,149.17573820002144,149.17573820002144,149.17573820002144,151.69193420000374,0,,,1,[2.5338395000144374],[2.5338489999994636],,,,,,,,,,,,,,,,,,,,,,,,,,5y,001,2023-11-26_23h49.20.259,CLT,2023.2.3,59.99257292228322,2023-11-26 23h49.39.827591 +0530,
C:\Users\Vinisha\Desktop\Lab in psychology\final assigment\Set 6 (Clifford)\Clifford-I1.jpg,i,0,24,24,15,,,,,,,,,151.70577520001098,,,,,,,,,,,,,,,,,,,,,,,151.69278300000587,151.70577520001098,152.70661819999805,152.70661819999805,152.70661819999805,152.70661819999805,155.2399221000087,0,,,1,[2.5492960000119638],[2.549303100007819],,,,,,,,,,,,,,,,,,,,,,,,,,5y,001,2023-11-26_23h49.20.259,CLT,2023.2.3,59.99257292228322,2023-11-26 23h49.39.827591 +0530,
C:\Users\Vinisha\Desktop\Lab in psychology\final assigment\Set11(Mich)\mich-r.jpg,r,0,25,25,29,,,,,,,,,155.26325780001935,,,,,,,,,,,,,,,,,,,,,,,155.24065580000752,155.26325780001935,156.2556573000038,156.2556573000038,156.2556573000038,156.27169530000538,157.74030720000155,0,,,1,[1.5016034000145737],[1.5016142000094987],,,,,,,,,,,,,,,,,,,,,,,,,,5y,001,2023-11-26_23h49.20.259,CLT,2023.2.3,59.99257292228322,2023-11-26 23h49.39.827591 +0530,
C:\Users\Vinisha\Desktop\Lab in psychology\final assigment\Set10(picasso)\picasso-r.jpg,r,0,26,26,26,,,,,,,,,157.76308620002237,,,,,,,,,,,,,,,,,,,,,,,157.7412437000021,157.76308620002237,158.7545104000019,158.7545104000019,158.7545104000019,158.77094320001197,160.0724731000082,0,,,1,[1.3334269000042696],[1.333432699990226],,,,,,,,,,,,,,,,,,,,,,,,,,5y,001,2023-11-26_23h49.20.259,CLT,2023.2.3,59.99257292228322,2023-11-26 23h49.39.827591 +0530,
C:\Users\Vinisha\Desktop\Lab in psychology\final assigment\Set8(Gosh)\gosh-n.jpg,n,0,27,27,18,,,,,,,,,160.13403169999947,,,,,,,,,,,,,,,,,,,,,,,160.0731056999939,160.13403169999947,161.08873370001675,161.08873370001675,161.08873370001675,161.13745810001274,165.18847190000815,1,[4.117718800000148],[4.117727799981367],0,,,,,,,,,,,,,,,,,,,,,,,,,,,,5y,001,2023-11-26_23h49.20.259,CLT,2023.2.3,59.99257292228322,2023-11-26 23h49.39.827591 +0530,
C:\Users\Vinisha\Desktop\Lab in psychology\final assigment\Set 4 (Piet)\Piet-R.jpg,r,0,28,28,10,,,,,,,,,165.20290800000657,,,,,,,,,,,,,,,,,,,,,,,165.1892882999964,165.20290800000657,166.20951800001785,166.20951800001785,166.20951800001785,166.22208520001732,167.67061770000146,0,,,1,[1.4842883000092115],[1.4842965000134427],,,,,,,,,,,,,,,,,,,,,,,,,,5y,001,2023-11-26_23h49.20.259,CLT,2023.2.3,59.99257292228322,2023-11-26 23h49.39.827591 +0530,
C:\Users\Vinisha\Desktop\Lab in psychology\final assigment\Set9(Gosh)\gosh-n.jpg,n,0,29,29,22,,,,,,,,,167.68843999999808,,,,,,,,,,,,,,,,,,,,,,,167.6714393000002,167.68843999999808,168.68446240000776,168.68446240000776,168.68446240000776,168.70121850000578,171.75251310001477,1,[3.0841303000051994],[3.084141200000886],0,,,,,,,,,,,,,,,,,,,,,,,,,,,,5y,001,2023-11-26_23h49.20.259,CLT,2023.2.3,59.99257292228322,2023-11-26 23h49.39.827591 +0530,
C:\Users\Vinisha\Desktop\Lab in psychology\final assigment\Set 5 (Clifford)\Clifford-I.jpg,i,0,30,30,14,,,,,,,,,171.81677970002056,,,,,,,,,,,,,,,,,,,,,,,171.75346890001674,171.81677970002056,172.7682203000004,172.7682203000004,172.7682203000004,172.81686400002218,174.8667800000112,1,[2.1165997000061907],[2.1166052000189666],0,,,,,,,,,,,,,,,,,,,,,,,,,,,,5y,001,2023-11-26_23h49.20.259,CLT,2023.2.3,59.99257292228322,2023-11-26 23h49.39.827591 +0530,
C:\Users\Vinisha\Desktop\Lab in psychology\final assigment\Set 4 (Piet)\Piet-I.jpg,i,0,31,31,11,,,,,,,,,174.88163829999394,,,,,,,,,,,,,,,,,,,,,,,174.8673425000161,174.88163829999394,175.88271720000193,175.88271720000193,175.88271720000193,175.88271720000193,177.8506456000032,0,,,1,[1.9845123999984935],[1.9845216999819968],,,,,,,,,,,,,,,,,,,,,,,,,,5y,001,2023-11-26_23h49.20.259,CLT,2023.2.3,59.99257292228322,2023-11-26 23h49.39.827591 +0530,
C:\Users\Vinisha\Desktop\Lab in psychology\final assigment\Set11(Mich)\mich-n.jpg,n,0,32,32,28,,,,,,,,,177.89470760000404,,,,,,,,,,,,,,,,,,,,,,,177.85148680000566,177.89470760000404,178.86753360001603,178.86753360001603,178.86753360001603,178.89844829999493,181.18293559999438,0,,,1,[2.3335579999838956],[2.3335660999873653],,,,,,,,,,,,,,,,,,,,,,,,,,5y,001,2023-11-26_23h49.20.259,CLT,2023.2.3,59.99257292228322,2023-11-26 23h49.39.827591 +0530,
C:\Users\Vinisha\Desktop\Lab in psychology\final assigment\Set 6 (Clifford)\Clifford-N1.jpg,n,,,,,0,0,0,16,,,,,187.23828479999793,,,,,,,,,,,,,,,,,,,,,,,,,,,,,,,,,,,,181.18347869999707,181.19660140000633,187.19508960001986,187.2124887999962,187.23828479999793,188.2095414000214,188.2095414000214,188.23085930000525,194.81250040000305,2.0388888888888888,7.5635229999898,,,,,,,,,,,,,,,5y,001,2023-11-26_23h49.20.259,CLT,2023.2.3,59.99257292228322,2023-11-26 23h49.39.827591 +0530,
C:\Users\Vinisha\Desktop\Lab in psychology\final assigment\Set 1 (Mark)\Mark-N.jpg,n,,,,,0,1,1,1,,,,,194.82946999999695,,,,,,,,,,,,,,,,,,,,,,,,,,,,,,,,,,,,,,,194.8129900000058,194.82946999999695,195.8353815000155,195.8353815000155,195.84669679999934,199.9770126999938,2.033333333333333,5.135463599988725,,,,,,,,,,,,,,,5y,001,2023-11-26_23h49.20.259,CLT,2023.2.3,59.99257292228322,2023-11-26 23h49.39.827591 +0530,
C:\Users\Vinisha\Desktop\Lab in psychology\final assigment\Set11(Mich)\mich-r.jpg,r,,,,,0,2,2,29,,,,,200.00264170000446,,,,,,,,,,,,,,,,,,,,,,,,,,,,,,,,,,,,,,,199.97733759999392,200.00264170000446,200.99050620000344,200.99050620000344,201.00697040001978,205.39269150001928,4.977777777777778,5.379029800009448,,,,,,,,,,,,,,,5y,001,2023-11-26_23h49.20.259,CLT,2023.2.3,59.99257292228322,2023-11-26 23h49.39.827591 +0530,
C:\Users\Vinisha\Desktop\Lab in psychology\final assigment\Set10(picasso)\picasso-r.jpg,r,,,,,0,3,3,26,,,,,205.41671640001005,,,,,,,,,,,,,,,,,,,,,,,,,,,,,,,,,,,,,,,205.3930057999969,205.41671640001005,206.40530090001994,206.40530090001994,206.42216720001306,209.04736130000674,4.977777777777778,3.6234466999885626,,,,,,,,,,,,,,,5y,001,2023-11-26_23h49.20.259,CLT,2023.2.3,59.99257292228322,2023-11-26 23h49.39.827591 +0530,
C:\Users\Vinisha\Desktop\Lab in psychology\final assigment\Set12(salvador)\salvador-i.jpg,i,,,,,0,4,4,30,,,,,209.15214550000383,,,,,,,,,,,,,,,,,,,,,,,,,,,,,,,,,,,,,,,209.04769470001338,209.15214550000383,210.0540197000082,210.0540197000082,210.15447780000977,213.34005960001377,6.983333333333333,4.178498399996897,,,,,,,,,,,,,,,5y,001,2023-11-26_23h49.20.259,CLT,2023.2.3,59.99257292228322,2023-11-26 23h49.39.827591 +0530,
C:\Users\Vinisha\Desktop\Lab in psychology\final assigment\Set10(picasso)\picasso-n.jpg,n,,,,,0,5,5,25,,,,,213.39018919999944,,,,,,,,,,,,,,,,,,,,,,,,,,,,,,,,,,,,,,,213.34038750000764,213.39018919999944,214.36289410002064,214.36289410002064,214.3869925000181,217.50524920001044,4.95,4.103723199979868,,,,,,,,,,,,,,,5y,001,2023-11-26_23h49.20.259,CLT,2023.2.3,59.99257292228322,2023-11-26 23h49.39.827591 +0530,
C:\Users\Vinisha\Desktop\Lab in psychology\final assigment\Set9(Gosh)\gosh-n.jpg,n,,,,,0,6,6,22,,,,,217.52318819999346,,,,,,,,,,,,,,,,,,,,,,,,,,,,,,,,,,,,,,,217.50557120001758,217.52318819999346,218.52631149999797,218.52631149999797,218.53664320000098,221.67111650001607,4.972222222222221,4.1357274999900255,,,,,,,,,,,,,,,5y,001,2023-11-26_23h49.20.259,CLT,2023.2.3,59.99257292228322,2023-11-26 23h49.39.827591 +0530,
C:\Users\Vinisha\Desktop\Lab in psychology\final assigment\Set 5 (Clifford)\Clifford-R.jpg,r,,,,,0,7,7,12,,,,,221.72702610000852,,,,,,,,,,,,,,,,,,,,,,,,,,,,,,,,,,,,,,,221.67145880000317,221.72702610000852,222.6925234000082,222.6925234000082,222.7334107000206,227.11906650001765,2.9055555555555554,5.381040700012818,,,,,,,,,,,,,,,5y,001,2023-11-26_23h49.20.259,CLT,2023.2.3,59.99257292228322,2023-11-26 23h49.39.827591 +0530,
C:\Users\Vinisha\Desktop\Lab in psychology\final assigment\Set 3 (Piet)\Piet-R.jpg,r,,,,,0,8,8,6,,,,,227.13366380002117,,,,,,,,,,,,,,,,,,,,,,,,,,,,,,,,,,,,,,,227.11938879999798,227.13366380002117,228.1353311999992,228.1353311999992,228.1487349999952,230.76850710000144,4.988888888888889,3.623349200002849,,,,,,,,,,,,,,,5y,001,2023-11-26_23h49.20.259,CLT,2023.2.3,59.99257292228322,2023-11-26 23h49.39.827591 +0530,
C:\Users\Vinisha\Desktop\Lab in psychology\final assigment\Set 4 (Piet)\Piet-R.jpg,r,,,,,0,9,9,10,,,,,230.78634210000746,,,,,,,,,,,,,,,,,,,,,,,,,,,,,,,,,,,,,,,230.76889780000784,230.78634210000746,231.7826011000143,231.7826011000143,231.79751750000287,235.08288650002214,6.011111111111111,4.285448400012683,,,,,,,,,,,,,,,5y,001,2023-11-26_23h49.20.259,CLT,2023.2.3,59.99257292228322,2023-11-26 23h49.39.827591 +0530,
C:\Users\Vinisha\Desktop\Lab in psychology\final assigment\Set 5 (Clifford)\Clifford-N.jpg,n,,,,,0,10,10,13,,,,,235.12158160001854,,,,,,,,,,,,,,,,,,,,,,,,,,,,,,,,,,,,,,,235.08323390001897,235.12158160001854,236.1011524000205,236.1011524000205,236.12929110002005,238.83167380001396,2.9833333333333334,3.6993700999883004,,,,,,,,,,,,,,,5y,001,2023-11-26_23h49.20.259,CLT,2023.2.3,59.99257292228322,2023-11-26 23h49.39.827591 +0530,
C:\Users\Vinisha\Desktop\Lab in psychology\final assigment\Set11(Mich)\mich-n.jpg,n,,,,,0,11,11,28,,,,,238.876463099994,,,,,,,,,,,,,,,,,,,,,,,,,,,,,,,,,,,,,,,238.8319865000085,238.876463099994,239.84471900001517,239.84471900001517,239.87813920000917,243.43138260001433,4.972222222222221,4.543601799989119,,,,,,,,,,,,,,,5y,001,2023-11-26_23h49.20.259,CLT,2023.2.3,59.99257292228322,2023-11-26 23h49.39.827591 +0530,
C:\Users\Vinisha\Desktop\Lab in psychology\final assigment\Set 1 (Mark)\Mark-R.jpg,r,,,,,0,12,12,2,,,,,243.4499106000003,,,,,,,,,,,,,,,,,,,,,,,,,,,,,,,,,,,,,,,243.43178440001793,243.4499106000003,244.4490858000063,244.4490858000063,244.46011430001818,247.5461891000159,4.055555555555555,4.084591199993156,,,,,,,,,,,,,,,5y,001,2023-11-26_23h49.20.259,CLT,2023.2.3,59.99257292228322,2023-11-26 23h49.39.827591 +0530,
C:\Users\Vinisha\Desktop\Lab in psychology\final assigment\Set9(Gosh)\gosh-r.jpg,r,,,,,0,13,13,23,,,,,247.55901560001075,,,,,,,,,,,,,,,,,,,,,,,,,,,,,,,,,,,,,,,247.5464925999986,247.55901560001075,248.5644901000196,248.5644901000196,248.5644901000196,252.47761790000368,3.8833333333333333,4.907554799981881,,,,,,,,,,,,,,,5y,001,2023-11-26_23h49.20.259,CLT,2023.2.3,59.99257292228322,2023-11-26 23h49.39.827591 +0530,
C:\Users\Vinisha\Desktop\Lab in psychology\final assigment\Set 6 (Clifford)\Clifford-R.jpg,r,,,,,0,14,14,17,,,,,252.4910569000058,,,,,,,,,,,,,,,,,,,,,,,,,,,,,,,,,,,,,,,252.47795090000727,252.4910569000058,253.49738099999377,253.49738099999377,253.49738099999377,255.42678730000625,4.233333333333333,2.923895200015977,,,,,,,,,,,,,,,5y,001,2023-11-26_23h49.20.259,CLT,2023.2.3,59.99257292228322,2023-11-26 23h49.39.827591 +0530,
C:\Users\Vinisha\Desktop\Lab in psychology\final assigment\Set 3 (Piet)\Piet-N.jpg,n,,,,,0,15,15,8,,,,,255.44181509999908,,,,,,,,,,,,,,,,,,,,,,,,,,,,,,,,,,,,,,,255.4271352000069,255.44181509999908,256.44425699999556,256.44425699999556,256.4563238999981,258.90909500001,4.977777777777778,3.4560008000116795,,,,,,,,,,,,,,,5y,001,2023-11-26_23h49.20.259,CLT,2023.2.3,59.99257292228322,2023-11-26 23h49.39.827591 +0530,
C:\Users\Vinisha\Desktop\Lab in psychology\final assigment\Set12(salvador)\salvador-r.jpg,r,,,,,0,16,16,32,,,,,258.9393112999969,,,,,,,,,,,,,,,,,,,,,,,,,,,,,,,,,,,,,,,258.90944020001916,258.9393112999969,259.92169190000277,259.92169190000277,259.93844420000096,262.7750582000008,6.027777777777779,3.8234435000049416,,,,,,,,,,,,,,,5y,001,2023-11-26_23h49.20.259,CLT,2023.2.3,59.99257292228322,2023-11-26 23h49.39.827591 +0530,
C:\Users\Vinisha\Desktop\Lab in psychology\final assigment\Set 6 (Clifford)\Clifford-I1.jpg,i,,,,,0,17,17,15,,,,,262.78956610002206,,,,,,,,,,,,,,,,,,,,,,,,,,,,,,,,,,,,,,,262.7754240000213,262.78956610002206,263.79052910002065,263.79052910002065,263.8041707999946,267.0400542000134,3.9444444444444446,4.238021600001957,,,,,,,,,,,,,,,5y,001,2023-11-26_23h49.20.259,CLT,2023.2.3,59.99257292228322,2023-11-26 23h49.39.827591 +0530,
C:\Users\Vinisha\Desktop\Lab in psychology\final assigment\Set 3 (Piet)\Piet-I.jpg,i,,,,,0,18,18,7,,,,,267.0550574999943,,,,,,,,,,,,,,,,,,,,,,,,,,,,,,,,,,,,,,,267.0403598000121,267.0550574999943,268.068888800015,268.068888800015,268.08266790001653,271.25504630000796,2.922222222222222,4.187872400012566,,,,,,,,,,,,,,,5y,001,2023-11-26_23h49.20.259,CLT,2023.2.3,59.99257292228322,2023-11-26 23h49.39.827591 +0530,
C:\Users\Vinisha\Desktop\Lab in psychology\final assigment\Set 4 (Piet)\Piet-I.jpg,i,,,,,0,19,19,11,,,,,271.27228110001306,,,,,,,,,,,,,,,,,,,,,,,,,,,,,,,,,,,,,,,271.25535520000267,271.27228110001306,272.27288730000146,272.27288730000146,272.284897000005,275.45408039999893,5.972222222222222,4.1702642000163905,,,,,,,,,,,,,,,5y,001,2023-11-26_23h49.20.259,CLT,2023.2.3,59.99257292228322,2023-11-26 23h49.39.827591 +0530,
C:\Users\Vinisha\Desktop\Lab in psychology\final assigment\Set11(Mich)\mich-i.jpg,i,,,,,0,20,20,27,,,,,275.5084304000193,,,,,,,,,,,,,,,,,,,,,,,,,,,,,,,,,,,,,,,275.45437870000023,275.5084304000193,276.4765622999985,276.4765622999985,276.5169334000093,278.18647660000715,5.972222222222222,2.6664241999969818,,,,,,,,,,,,,,,5y,001,2023-11-26_23h49.20.259,CLT,2023.2.3,59.99257292228322,2023-11-26 23h49.39.827591 +0530,
C:\Users\Vinisha\Desktop\Lab in psychology\final assigment\Set 1 (Mark)\Mark-I.jpg,i,,,,,0,21,21,0,,,,,278.20313750000787,,,,,,,,,,,,,,,,,,,,,,,,,,,,,,,,,,,,,,,278.1868586000055,278.20313750000787,279.2087114000169,279.2087114000169,279.22007559999474,281.8689873999974,3.9555555555555557,3.6542776999995112,,,,,,,,,,,,,,,5y,001,2023-11-26_23h49.20.259,CLT,2023.2.3,59.99257292228322,2023-11-26 23h49.39.827591 +0530,
C:\Users\Vinisha\Desktop\Lab in psychology\final assigment\Set8(Gosh)\gosh-i.jpg,i,,,,,0,22,22,20,,,,,282.0443363999948,,,,,,,,,,,,,,,,,,,,,,,,,,,,,,,,,,,,,,,281.8693767999939,282.0443363999948,282.88850430000457,282.88850430000457,283.0481138000032,285.5011058000091,4.9944444444444445,3.4484876999922562,,,,,,,,,,,,,,,5y,001,2023-11-26_23h49.20.259,CLT,2023.2.3,59.99257292228322,2023-11-26 23h49.39.827591 +0530,
C:\Users\Vinisha\Desktop\Lab in psychology\final assigment\Set8(Gosh)\gosh-n.jpg,n,,,,,0,23,23,18,,,,,285.5722265000222,,,,,,,,,,,,,,,,,,,,,,,,,,,,,,,,,,,,,,,285.5014421000087,285.5722265000222,286.5169403000036,286.5169403000036,286.58016310000676,287.7670839000202,4.9944444444444445,2.18369609999354,,,,,,,,,,,,,,,5y,001,2023-11-26_23h49.20.259,CLT,2023.2.3,59.99257292228322,2023-11-26 23h49.39.827591 +0530,
C:\Users\Vinisha\Desktop\Lab in psychology\final assigment\Set 2 (Mark)\Mark-N.jpg,n,,,,,0,24,24,3,,,,,287.78098390001105,,,,,,,,,,,,,,,,,,,,,,,,,,,,,,,,,,,,,,,287.7674549999938,287.78098390001105,288.7831478000153,288.7831478000153,288.7960948999971,291.2324040000094,4.0055555555555555,3.4399967000063043,,,,,,,,,,,,,,,5y,001,2023-11-26_23h49.20.259,CLT,2023.2.3,59.99257292228322,2023-11-26 23h49.39.827591 +0530,
C:\Users\Vinisha\Desktop\Lab in psychology\final assigment\Set10(picasso)\picasso-i.jpg,i,,,,,0,25,25,24,,,,,291.25930110001354,,,,,,,,,,,,,,,,,,,,,,,,,,,,,,,,,,,,,,,291.2327057000075,291.25930110001354,292.2532594000222,292.2532594000222,292.2632670000021,295.19770950000384,6.011111111111111,3.9264486999891233,,,,,,,,,,,,,,,5y,001,2023-11-26_23h49.20.259,CLT,2023.2.3,59.99257292228322,2023-11-26 23h49.39.827591 +0530,
C:\Users\Vinisha\Desktop\Lab in psychology\final assigment\Set8(Gosh)\gosh-r.jpg,r,,,,,0,26,26,19,,,,,295.7477257999999,,,,,,,,,,,,,,,,,,,,,,,,,,,,,,,,,,,,,,,295.19800649999524,295.7477257999999,296.2573789000162,296.2573789000162,296.7606704000209,298.28030350001063,5.0166666666666675,2.520309699990321,,,,,,,,,,,,,,,5y,001,2023-11-26_23h49.20.259,CLT,2023.2.3,59.99257292228322,2023-11-26 23h49.39.827591 +0530,
C:\Users\Vinisha\Desktop\Lab in psychology\final assigment\Set 4 (Piet)\Piet-N.jpg,n,,,,,0,27,27,9,,,,,298.296697200014,,,,,,,,,,,,,,,,,,,,,,,,,,,,,,,,,,,,,,,298.28064030001406,298.296697200014,299.30055580000044,299.30055580000044,299.3149995999993,301.5291487000068,2.9555555555555557,3.2210094000038225,,,,,,,,,,,,,,,5y,001,2023-11-26_23h49.20.259,CLT,2023.2.3,59.99257292228322,2023-11-26 23h49.39.827591 +0530,
C:\Users\Vinisha\Desktop\Lab in psychology\final assigment\Set 2 (Mark)\Mark-I.jpg,i,,,,,0,28,28,4,,,,,301.54239350001444,,,,,,,,,,,,,,,,,,,,,,,,,,,,,,,,,,,,,,,301.5294470000081,301.54239350001444,302.54828909999924,302.54828909999924,302.54828909999924,304.66128060000483,2.9444444444444446,3.1089406000101008,,,,,,,,,,,,,,,5y,001,2023-11-26_23h49.20.259,CLT,2023.2.3,59.99257292228322,2023-11-26 23h49.39.827591 +0530,
C:\Users\Vinisha\Desktop\Lab in psychology\final assigment\Set 5 (Clifford)\Clifford-I.jpg,i,,,,,0,29,29,14,,,,,304.7248249000113,,,,,,,,,,,,,,,,,,,,,,,,,,,,,,,,,,,,,,,304.661597600003,304.7248249000113,305.68589890000294,305.68589890000294,305.72458209999604,306.9275109000155,2.9444444444444446,2.192077200015774,,,,,,,,,,,,,,,5y,001,2023-11-26_23h49.20.259,CLT,2023.2.3,59.99257292228322,2023-11-26 23h49.39.827591 +0530,
C:\Users\Vinisha\Desktop\Lab in psychology\final assigment\Set 2 (Mark)\Mark-R.jpg,r,,,,,0,30,30,5,,,,,306.9464041000174,,,,,,,,,,,,,,,,,,,,,,,,,,,,,,,,,,,,,,,306.92781140000443,306.9464041000174,307.9427271000168,307.9427271000168,307.95713850000175,309.44314660000964,2.9444444444444446,2.4855070000048727,,,,,,,,,,,,,,,5y,001,2023-11-26_23h49.20.259,CLT,2023.2.3,59.99257292228322,2023-11-26 23h49.39.827591 +0530,
C:\Users\Vinisha\Desktop\Lab in psychology\final assigment\Set9(Gosh)\gosh-i.jpg,i,,,,,0,31,31,21,,,,,309.45674680001684,,,,,,,,,,,,,,,,,,,,,,,,,,,,,,,,,,,,,,,309.443451500003,309.45674680001684,310.4640464000113,310.4640464000113,310.4640464000113,312.25929899999755,2.9444444444444446,2.7928172999818344,,,,,,,,,,,,,,,5y,001,2023-11-26_23h49.20.259,CLT,2023.2.3,59.99257292228322,2023-11-26 23h49.39.827591 +0530,
C:\Users\Vinisha\Desktop\Lab in psychology\final assigment\Set12(salvador)\salvador-n.jpg,n,,,,,0,32,32,31,,,,,312.2724894999992,,,,,,,,,,,,,,,,,,,,,,,,,,,,,,,,,,,,,,,312.25963149999734,312.2724894999992,313.2841019000043,313.2841019000043,313.2841019000043,316.12491919999593,4.955555555555556,3.8426213999919128,,,,,,,,,,,,,,,5y,001,2023-11-26_23h49.20.259,CLT,2023.2.3,59.99257292228322,2023-11-26 23h49.39.827591 +0530,
C:\Users\Vinisha\Desktop\Lab in psychology\final assigment\Set10(picasso)\picasso-n.jpg,n,,,,,,,,,0,0,0,25,322.1815290999948,,,,,,,,,,,,,,,,,,,,,,,,,,,,,,,,,,,,,,,,,,,,,,,316.1251315000118,316.13774760000524,322.1364147000131,322.15712899999926,322.1815290999948,323.1384184000199,323.1384184000199,323.1856157000002,325.5048907000164,4.927777777777778,3.3124360000074375,,,,5y,001,2023-11-26_23h49.20.259,CLT,2023.2.3,59.99257292228322,2023-11-26 23h49.39.827591 +0530,
C:\Users\Vinisha\Desktop\Lab in psychology\final assigment\Set 5 (Clifford)\Clifford-N.jpg,n,,,,,,,,,0,1,1,13,325.54447960000834,,,,,,,,,,,,,,,,,,,,,,,,,,,,,,,,,,,,,,,,,,,,,,,,,,325.5053456000169,325.54447960000834,326.52334600000177,326.52334600000177,326.5514332000166,330.33668380000745,2.9833333333333334,4.781553599983454,,,,5y,001,2023-11-26_23h49.20.259,CLT,2023.2.3,59.99257292228322,2023-11-26 23h49.39.827591 +0530,
C:\Users\Vinisha\Desktop\Lab in psychology\final assigment\Set12(salvador)\salvador-n.jpg,n,,,,,,,,,0,2,2,31,330.36782569999923,,,,,,,,,,,,,,,,,,,,,,,,,,,,,,,,,,,,,,,,,,,,,,,,,,330.33700070000486,330.36782569999923,331.35392640001373,331.35392640001373,331.3662505999964,333.8191060000099,4.927777777777778,3.439331100002164,,,,5y,001,2023-11-26_23h49.20.259,CLT,2023.2.3,59.99257292228322,2023-11-26 23h49.39.827591 +0530,
C:\Users\Vinisha\Desktop\Lab in psychology\final assigment\Set 4 (Piet)\Piet-N.jpg,n,,,,,,,,,0,3,3,9,333.83575369999744,,,,,,,,,,,,,,,,,,,,,,,,,,,,,,,,,,,,,,,,,,,,,,,,,,333.8194398000196,333.83575369999744,334.8317960000131,334.8317960000131,334.8487900000182,335.8684951000032,4.927777777777778,2.0203958000056446,,,,5y,001,2023-11-26_23h49.20.259,CLT,2023.2.3,59.99257292228322,2023-11-26 23h49.39.827591 +0530,
C:\Users\Vinisha\Desktop\Lab in psychology\final assigment\Set 2 (Mark)\Mark-I.jpg,i,,,,,,,,,0,4,4,4,335.8816288000089,,,,,,,,,,,,,,,,,,,,,,,,,,,,,,,,,,,,,,,,,,,,,,,,,,335.8688540000003,335.8816288000089,336.88140440001735,336.88140440001735,336.88140440001735,338.0013511000143,4.927777777777778,2.109460300009232,,,,5y,001,2023-11-26_23h49.20.259,CLT,2023.2.3,59.99257292228322,2023-11-26 23h49.39.827591 +0530,
C:\Users\Vinisha\Desktop\Lab in psychology\final assigment\Set11(Mich)\mich-n.jpg,n,,,,,,,,,0,5,5,28,338.04879950001487,,,,,,,,,,,,,,,,,,,,,,,,,,,,,,,,,,,,,,,,,,,,,,,,,,338.00167870000587,338.04879950001487,339.0207869000151,339.0207869000151,339.0474038000102,340.90037570000277,4.955555555555556,2.8403229999821633,,,,5y,001,2023-11-26_23h49.20.259,CLT,2023.2.3,59.99257292228322,2023-11-26 23h49.39.827591 +0530,
C:\Users\Vinisha\Desktop\Lab in psychology\final assigment\Set 4 (Piet)\Piet-I.jpg,i,,,,,,,,,0,6,6,11,340.9177847999963,,,,,,,,,,,,,,,,,,,,,,,,,,,,,,,,,,,,,,,,,,,,,,,,,,340.9006874000188,340.9177847999963,341.9206337000069,341.9206337000069,341.9314486999938,344.5988575000083,5.911111111111111,3.669472499983385,,,,5y,001,2023-11-26_23h49.20.259,CLT,2023.2.3,59.99257292228322,2023-11-26 23h49.39.827591 +0530,
C:\Users\Vinisha\Desktop\Lab in psychology\final assigment\Set9(Gosh)\gosh-r.jpg,r,,,,,,,,,0,7,7,23,344.6126764000219,,,,,,,,,,,,,,,,,,,,,,,,,,,,,,,,,,,,,,,,,,,,,,,,,,344.59916579999845,344.6126764000219,345.618719399994,345.618719399994,345.618719399994,349.03133290002006,2.9055555555555554,4.4101319999899715,,,,5y,001,2023-11-26_23h49.20.259,CLT,2023.2.3,59.99257292228322,2023-11-26 23h49.39.827591 +0530,
C:\Users\Vinisha\Desktop\Lab in psychology\final assigment\Set9(Gosh)\gosh-n.jpg,n,,,,,,,,,0,8,8,22,349.0500004000205,,,,,,,,,,,,,,,,,,,,,,,,,,,,,,,,,,,,,,,,,,,,,,,,,,349.03165760001866,349.0500004000205,350.0435895000119,350.0435895000119,350.0604273000208,352.8633020000125,4.05,3.8011949000065215,,,,5y,001,2023-11-26_23h49.20.259,CLT,2023.2.3,59.99257292228322,2023-11-26 23h49.39.827591 +0530,
C:\Users\Vinisha\Desktop\Lab in psychology\final assigment\Set12(salvador)\salvador-i.jpg,i,,,,,,,,,0,9,9,30,352.9701638999977,,,,,,,,,,,,,,,,,,,,,,,,,,,,,,,,,,,,,,,,,,,,,,,,,,352.8637221000099,352.9701638999977,353.88748340000166,353.88748340000166,353.97581750000245,358.2614538000198,7,5.281988000002457,,,,5y,001,2023-11-26_23h49.20.259,CLT,2023.2.3,59.99257292228322,2023-11-26 23h49.39.827591 +0530,
C:\Users\Vinisha\Desktop\Lab in psychology\final assigment\Set 2 (Mark)\Mark-R.jpg,r,,,,,,,,,0,10,10,5,358.2998966000159,,,,,,,,,,,,,,,,,,,,,,,,,,,,,,,,,,,,,,,,,,,,,,,,,,358.26175150001654,358.2998966000159,359.27415330000804,359.27415330000804,359.30763690001913,362.3771198000177,3.0055555555555555,4.065633799997158,,,,5y,001,2023-11-26_23h49.20.259,CLT,2023.2.3,59.99257292228322,2023-11-26 23h49.39.827591 +0530,
C:\Users\Vinisha\Desktop\Lab in psychology\final assigment\Set 2 (Mark)\Mark-N.jpg,n,,,,,,,,,0,11,11,3,362.39064950001193,,,,,,,,,,,,,,,,,,,,,,,,,,,,,,,,,,,,,,,,,,,,,,,,,,362.37744219999877,362.39064950001193,363.38989580000634,363.38989580000634,363.406504100014,364.6801177000161,3.0055555555555555,2.2824856999795884,,,,5y,001,2023-11-26_23h49.20.259,CLT,2023.2.3,59.99257292228322,2023-11-26 23h49.39.827591 +0530,
C:\Users\Vinisha\Desktop\Lab in psychology\final assigment\Set 6 (Clifford)\Clifford-I1.jpg,i,,,,,,,,,0,12,12,15,364.6940905000083,,,,,,,,,,,,,,,,,,,,,,,,,,,,,,,,,,,,,,,,,,,,,,,,,,364.6804381000111,364.6940905000083,365.68883650001953,365.68883650001953,365.7055544000177,369.1413311000215,4.9944444444444445,4.434979600016959,,,,5y,001,2023-11-26_23h49.20.259,CLT,2023.2.3,59.99257292228322,2023-11-26 23h49.39.827591 +0530,
C:\Users\Vinisha\Desktop\Lab in psychology\final assigment\Set8(Gosh)\gosh-r.jpg,r,,,,,,,,,0,13,13,19,369.6678339000209,,,,,,,,,,,,,,,,,,,,,,,,,,,,,,,,,,,,,,,,,,,,,,,,,,369.14167630000156,369.6678339000209,370.1915917000151,370.1915917000151,370.6708195999963,373.20706190000055,3.9,3.5275286000105552,,,,5y,001,2023-11-26_23h49.20.259,CLT,2023.2.3,59.99257292228322,2023-11-26 23h49.39.827591 +0530,
C:\Users\Vinisha\Desktop\Lab in psychology\final assigment\Set9(Gosh)\gosh-i.jpg,i,,,,,,,,,0,14,14,21,373.2200540000049,,,,,,,,,,,,,,,,,,,,,,,,,,,,,,,,,,,,,,,,,,,,,,,,,,373.2073989000055,373.2200540000049,374.2317560999945,374.2317560999945,374.2317560999945,376.3891334999935,4.916666666666667,3.1584084999922197,,,,5y,001,2023-11-26_23h49.20.259,CLT,2023.2.3,59.99257292228322,2023-11-26 23h49.39.827591 +0530,
C:\Users\Vinisha\Desktop\Lab in psychology\final assigment\Set 5 (Clifford)\Clifford-I.jpg,i,,,,,,,,,0,15,15,14,376.44982460001484,,,,,,,,,,,,,,,,,,,,,,,,,,,,,,,,,,,,,,,,,,,,,,,,,,376.3894563000067,376.44982460001484,377.41099620002205,377.41099620002205,377.45211450001807,379.63836310000625,2.9611111111111112,3.1781674999801908,,,,5y,001,2023-11-26_23h49.20.259,CLT,2023.2.3,59.99257292228322,2023-11-26 23h49.39.827591 +0530,
C:\Users\Vinisha\Desktop\Lab in psychology\final assigment\Set 3 (Piet)\Piet-R.jpg,r,,,,,,,,,0,16,16,6,379.65460259999963,,,,,,,,,,,,,,,,,,,,,,,,,,,,,,,,,,,,,,,,,,,,,,,,,,379.6387523000012,379.65460259999963,380.6574002999987,380.6574002999987,380.6675577000133,386.086086299998,2.9611111111111112,6.419719099998474,,,,5y,001,2023-11-26_23h49.20.259,CLT,2023.2.3,59.99257292228322,2023-11-26 23h49.39.827591 +0530,
C:\Users\Vinisha\Desktop\Lab in psychology\final assigment\Set8(Gosh)\gosh-i.jpg,i,,,,,,,,,0,17,17,20,386.2330702000181,,,,,,,,,,,,,,,,,,,,,,,,,,,,,,,,,,,,,,,,,,,,,,,,,,386.08640650002053,386.2330702000181,387.09887320001144,387.09887320001144,387.2322900000145,389.5852490999969,4.966666666666667,3.3438811999803875,,,,5y,001,2023-11-26_23h49.20.259,CLT,2023.2.3,59.99257292228322,2023-11-26 23h49.39.827591 +0530,
C:\Users\Vinisha\Desktop\Lab in psychology\final assigment\Set8(Gosh)\gosh-n.jpg,n,,,,,,,,,0,18,18,18,389.65777069999604,,,,,,,,,,,,,,,,,,,,,,,,,,,,,,,,,,,,,,,,,,,,,,,,,,389.5855983000074,389.65777069999604,390.60590690001845,390.60590690001845,390.66456970002037,393.08353200001875,4.983333333333333,3.415625199995702,,,,5y,001,2023-11-26_23h49.20.259,CLT,2023.2.3,59.99257292228322,2023-11-26 23h49.39.827591 +0530,
C:\Users\Vinisha\Desktop\Lab in psychology\final assigment\Set10(picasso)\picasso-r.jpg,r,,,,,,,,,0,19,19,26,393.1086430000141,,,,,,,,,,,,,,,,,,,,,,,,,,,,,,,,,,,,,,,,,,,,,,,,,,393.0838662000024,393.1086430000141,394.1010010000027,394.1010010000027,394.1185450000048,397.349706900015,6.366666666666666,4.229456300003221,,,,5y,001,2023-11-26_23h49.20.259,CLT,2023.2.3,59.99257292228322,2023-11-26 23h49.39.827591 +0530,
C:\Users\Vinisha\Desktop\Lab in psychology\final assigment\Set 1 (Mark)\Mark-I.jpg,i,,,,,,,,,0,20,20,0,397.3663962999999,,,,,,,,,,,,,,,,,,,,,,,,,,,,,,,,,,,,,,,,,,,,,,,,,,397.35004620000836,397.3663962999999,398.37216780000017,398.37216780000017,398.38288300001295,400.66506140001,5.644444444444445,3.2869251999945845,,,,5y,001,2023-11-26_23h49.20.259,CLT,2023.2.3,59.99257292228322,2023-11-26 23h49.39.827591 +0530,
C:\Users\Vinisha\Desktop\Lab in psychology\final assigment\Set 6 (Clifford)\Clifford-N1.jpg,n,,,,,,,,,0,21,21,16,400.6849574999942,,,,,,,,,,,,,,,,,,,,,,,,,,,,,,,,,,,,,,,,,,,,,,,,,,400.665398800018,400.6849574999942,401.68748180000694,401.68748180000694,401.69734050001716,406.06288250000216,2.6555555555555554,5.36703039999702,,,,5y,001,2023-11-26_23h49.20.259,CLT,2023.2.3,59.99257292228322,2023-11-26 23h49.39.827591 +0530,
C:\Users\Vinisha\Desktop\Lab in psychology\final assigment\Set 1 (Mark)\Mark-N.jpg,n,,,,,,,,,0,22,22,1,406.0771851000027,,,,,,,,,,,,,,,,,,,,,,,,,,,,,,,,,,,,,,,,,,,,,,,,,,406.0631990999973,406.0771851000027,407.0828022000205,407.0828022000205,407.0828022000205,408.3789539000136,2.6555555555555554,2.2911334999953397,,,,5y,001,2023-11-26_23h49.20.259,CLT,2023.2.3,59.99257292228322,2023-11-26 23h49.39.827591 +0530,
C:\Users\Vinisha\Desktop\Lab in psychology\final assigment\Set12(salvador)\salvador-r.jpg,r,,,,,,,,,0,23,23,32,408.4049445000128,,,,,,,,,,,,,,,,,,,,,,,,,,,,,,,,,,,,,,,,,,,,,,,,,,408.37926450002124,408.4049445000128,409.3951691999973,409.3951691999973,409.4085202999995,413.36047270000563,6.305555555555555,4.94411409998429,,,,5y,001,2023-11-26_23h49.20.259,CLT,2023.2.3,59.99257292228322,2023-11-26 23h49.39.827591 +0530,
C:\Users\Vinisha\Desktop\Lab in psychology\final assigment\Set 6 (Clifford)\Clifford-R.jpg,r,,,,,,,,,0,24,24,17,413.3740026000014,,,,,,,,,,,,,,,,,,,,,,,,,,,,,,,,,,,,,,,,,,,,,,,,,,413.36079110001447,413.3740026000014,414.3826193000132,414.3826193000132,414.3826193000132,418.12616780001554,4.644444444444444,4.740182899986394,,,,5y,001,2023-11-26_23h49.20.259,CLT,2023.2.3,59.99257292228322,2023-11-26 23h49.39.827591 +0530,
C:\Users\Vinisha\Desktop\Lab in psychology\final assigment\Set11(Mich)\mich-r.jpg,r,,,,,,,,,0,25,25,29,418.1496637999953,,,,,,,,,,,,,,,,,,,,,,,,,,,,,,,,,,,,,,,,,,,,,,,,,,418.1264633999963,418.1496637999953,419.1437703999982,419.1437703999982,419.1556796999939,422.3916067999962,5.611111111111112,4.229758900008164,,,,5y,001,2023-11-26_23h49.20.259,CLT,2023.2.3,59.99257292228322,2023-11-26 23h49.39.827591 +0530,
C:\Users\Vinisha\Desktop\Lab in psychology\final assigment\Set 5 (Clifford)\Clifford-R.jpg,r,,,,,,,,,0,26,26,12,422.4498500000045,,,,,,,,,,,,,,,,,,,,,,,,,,,,,,,,,,,,,,,,,,,,,,,,,,422.3919370000076,422.4498500000045,423.40824129999964,423.40824129999964,423.45444230001885,425.6072910000221,3.727777777777778,3.1459392000106163,,,,5y,001,2023-11-26_23h49.20.259,CLT,2023.2.3,59.99257292228322,2023-11-26 23h49.39.827591 +0530,
C:\Users\Vinisha\Desktop\Lab in psychology\final assigment\Set 1 (Mark)\Mark-R.jpg,r,,,,,,,,,0,27,27,2,425.62557920001564,,,,,,,,,,,,,,,,,,,,,,,,,,,,,,,,,,,,,,,,,,,,,,,,,,425.60762900000555,425.62557920001564,426.626319700008,426.626319700008,426.63762049999787,427.90653599999496,3.727777777777778,2.26963870000327,,,,5y,001,2023-11-26_23h49.20.259,CLT,2023.2.3,59.99257292228322,2023-11-26 23h49.39.827591 +0530,
C:\Users\Vinisha\Desktop\Lab in psychology\final assigment\Set10(picasso)\picasso-i.jpg,i,,,,,,,,,0,28,28,24,427.93344049999723,,,,,,,,,,,,,,,,,,,,,,,,,,,,,,,,,,,,,,,,,,,,,,,,,,427.90687989999424,427.93344049999723,428.92473950001295,428.92473950001295,428.9360133000009,431.9891176999954,5.644444444444445,4.043353500019293,,,,5y,001,2023-11-26_23h49.20.259,CLT,2023.2.3,59.99257292228322,2023-11-26 23h49.39.827591 +0530,
C:\Users\Vinisha\Desktop\Lab in psychology\final assigment\Set11(Mich)\mich-i.jpg,i,,,,,,,,,0,29,29,27,432.04174479999347,,,,,,,,,,,,,,,,,,,,,,,,,,,,,,,,,,,,,,,,,,,,,,,,,,431.989496299997,432.04174479999347,433.01362209999934,433.01362209999934,433.0344355000125,435.75408929999685,5.6722222222222225,3.700736400001915,,,,5y,001,2023-11-26_23h49.20.259,CLT,2023.2.3,59.99257292228322,2023-11-26 23h49.39.827591 +0530,
C:\Users\Vinisha\Desktop\Lab in psychology\final assigment\Set 4 (Piet)\Piet-R.jpg,r,,,,,,,,,0,30,30,10,435.77028810000047,,,,,,,,,,,,,,,,,,,,,,,,,,,,,,,,,,,,,,,,,,,,,,,,,,435.7543846000044,435.77028810000047,436.77678499999456,436.77678499999456,436.7881732000096,439.62163770000916,6.216666666666667,3.8373989000101574,,,,5y,001,2023-11-26_23h49.20.259,CLT,2023.2.3,59.99257292228322,2023-11-26 23h49.39.827591 +0530,
C:\Users\Vinisha\Desktop\Lab in psychology\final assigment\Set 3 (Piet)\Piet-I.jpg,i,,,,,,,,,0,31,31,7,439.64081500002067,,,,,,,,,,,,,,,,,,,,,,,,,,,,,,,,,,,,,,,,,,,,,,,,,,439.6219977000146,439.64081500002067,440.6383945000125,440.6383945000125,440.64934400000493,445.7266845999984,4.594444444444445,6.077442999987397,,,,5y,001,2023-11-26_23h49.20.259,CLT,2023.2.3,59.99257292228322,2023-11-26 23h49.39.827591 +0530,
C:\Users\Vinisha\Desktop\Lab in psychology\final assigment\Set 3 (Piet)\Piet-N.jpg,n,,,,,,,,,0,32,32,8,445.7438661000051,,,,,,,,,,,,,,,,,,,,,,,,,,,,,,,,,,,,,,,,,,,,,,,,,,445.7271033000143,445.7438661000051,446.73679530000663,446.73679530000663,446.74807500001043,448.91669589999947,4.594444444444445,3.1610627000045497,,,,5y,001,2023-11-26_23h49.20.259,CLT,2023.2.3,59.99257292228322,2023-11-26 23h49.39.827591 +0530,
,,,,,,,,,,,,,,,,,,,,,,,448.9169038000109,448.93721110001206,448.93721110001206,463.06237080000574,2.022222222222222,14.124229900015052,,,,,,,,,,,,,,,,,,,,,,,,,,,,,,,,,,,,,,,,,,,,463.0623932000017,463.07575519999955,467.07428620001883,,,,,,,,
